File: data/LQG_putty/graphite-putty samples/Specific Heat/Graphite/sample1.csv
#EXPORTTYPE:                 ,DATA COMPARE                 ,
#FILE:                       ,sample1.ngb-ds3              ,
#FORMAT:                     ,NETZSCH5                     ,
#FTYPE:                      ,ANSI                         ,
#IDENTITY:                   ,graphite                     ,
#DECIMAL:                    ,POINT                        ,
#SEPARATOR:                  ,COMMA                        ,
#MTYPE:                      ,CP                           ,
#INSTRUMENT:                 ,NETZSCH STA 449F3            ,
#PROJECT:                    ,Gen3CSP                      ,
#DATE/TIME:                  ,12/9/2022 11:00:47 AM (UTC-5),
#CORR. FILE:                 ,baseline2.ngb-bs3            ,
#TEMPCAL:                    ,TCALZERO.TCX                 ,
#SENSITIVITY:                ,SENSZERO.EXX                 ,
#LABORATORY:                 ,STEEL                        ,
#OPERATOR:                   ,MJA                          ,
#REMARK:                     ,                             ,
#SAMPLE:                     ,sample1                      ,
#SAMPLE MASS /mg:            ,51,
#MATERIAL:                   ,                             ,
#REFERENCE:                  ,                             ,
#REFERENCE MASS /mg:         ,0,
#TYPE OF CRUCIBLE:           ,PtRh20 85 �l, with lid
#SAMPLE CRUCIBLE MASS /mg:   ,0,
#REFERENCE CRUCIBLE MASS /mg:,0,
#DSC RANGE /�V:              ,5000,
#TG RANGE /mg:               ,35000,
#TAU-R:                      ,---                          ,
#CORR. CODE:                 ,0,
#EXO:                        ,-1,
#RANGE:                      ,100�C/15.0(K/min)/1180�C     ,
#SEGMENT:                    ,S5/7                         ,
#SEG. 5:                     ,100�C/15.0(K/min)/1180�C     ,
,,
##Temp./C,Cp(5)/(J/(g*K)),
138.004,-0.79727,
138.658,-0.88999,
139.311,-0.97986,
139.965,-1.06082,
140.618,-1.14101,
141.272,-1.21735,
141.925,-1.28772,
142.579,-1.35727,
143.232,-1.41951,
143.8859,-1.48027,
144.539,-1.53908,
145.193,-1.59522,
145.847,-1.64834,
146.5,-1.69825,
147.154,-1.74694,
147.807,-1.79085,
148.461,-1.83561,
149.114,-1.8786,
149.768,-1.91766,
150.421,-1.95335,
151.0749,-1.99001,
151.728,-2.02317,
152.382,-2.05443,
153.036,-2.0839,
153.689,-2.1108,
154.343,-2.13772,
154.996,-2.16604,
155.65,-2.18692,
156.303,-2.20917,
156.957,-2.22826,
157.61,-2.24719,
158.2639,-2.26502,
158.917,-2.2825,
159.571,-2.29467,
160.225,-2.30608,
160.878,-2.2425,
161.532,1.09719,
162.185,1.05629,
162.839,1.05452,
163.492,1.05506,
164.146,1.05531,
164.799,1.0559,
165.4529,1.05626,
166.106,1.05648,
166.76,1.05736,
167.414,1.05777,
168.067,1.0583,
168.721,1.05898,
169.374,1.05994,
170.028,1.06047,
170.681,1.06102,
171.3348,1.06152,
171.988,1.06204,
172.642,1.06283,
173.295,1.0634,
173.949,1.06408,
174.603,1.06462,
175.256,1.06559,
175.91,1.06616,
176.563,1.06699,
177.217,1.06792,
177.87,1.06865,
178.5238,1.06924,
179.177,1.06985,
179.831,1.07094,
180.484,1.07169,
181.138,1.0726,
181.792,1.0733,
182.445,1.0745,
183.099,1.07563,
183.752,1.07685,
184.406,1.0779,
185.059,1.07898,
185.7128,1.08017,
186.366,1.08068,
187.02,1.08184,
187.673,1.08296,
188.327,1.08433,
188.981,1.08542,
189.634,1.08642,
190.288,1.08773,
190.941,1.0889,
191.5947,1.09021,
192.248,1.09117,
192.902,1.09242,
193.555,1.09426,
194.209,1.09511,
194.862,1.09639,
195.516,1.09723,
196.17,1.0989,
196.823,1.10017,
197.477,1.10202,
198.13,1.10333,
198.7837,1.10514,
199.437,1.10607,
200.091,1.10774,
200.744,1.109,
201.398,1.11084,
202.051,1.11171,
202.705,1.11358,
203.359,1.11561,
204.012,1.11656,
204.666,1.11833,
205.319,1.11953,
205.9727,1.12166,
206.626,1.12258,
207.28,1.12464,
207.933,1.12676,
208.587,1.12798,
209.24,1.12988,
209.894,1.13157,
210.548,1.13355,
211.201,1.13452,
211.855,1.1357,
212.508,1.13732,
213.1617,1.13886,
213.815,1.14108,
214.469,1.14308,
215.122,1.14394,
215.776,1.14524,
216.429,1.14708,
217.083,1.14938,
217.737,1.1508,
218.39,1.15171,
219.0436,1.154,
219.697,1.15486,
220.351,1.15621,
221.004,1.15776,
221.658,1.15909,
222.311,1.16091,
222.965,1.16219,
223.618,1.16403,
224.272,1.16591,
224.926,1.16689,
225.579,1.16843,
226.2326,1.17069,
226.886,1.17178,
227.54,1.17323,
228.193,1.17414,
228.847,1.17563,
229.5,1.17744,
230.154,1.1785,
230.807,1.18052,
231.461,1.18163,
232.115,1.18358,
232.768,1.18479,
233.4216,1.18589,
234.075,1.18776,
234.729,1.18893,
235.382,1.19019,
236.036,1.19229,
236.689,1.19356,
237.343,1.19394,
237.996,1.19586,
238.65,1.1969,
239.3035,1.19833,
239.957,1.19976,
240.611,1.20031,
241.264,1.20191,
241.918,1.20378,
242.571,1.20486,
243.225,1.20592,
243.878,1.20762,
244.532,1.2092,
245.185,1.21017,
245.839,1.21176,
246.4925,1.21187,
247.146,1.21335,
247.8,1.21486,
248.453,1.21595,
249.107,1.2177,
249.76,1.21842,
250.414,1.21926,
251.067,1.22114,
251.721,1.22213,
252.374,1.22348,
253.028,1.2236,
253.6815,1.22558,
254.335,1.2261,
254.989,1.22713,
255.642,1.22796,
256.296,1.22921,
256.949,1.22993,
257.603,1.23102,
258.256,1.2312,
258.91,1.23223,
259.563,1.2341,
260.217,1.23509,
260.8705,1.23631,
261.524,1.23735,
262.178,1.23859,
262.831,1.2391,
263.485,1.24032,
264.138,1.24137,
264.792,1.24296,
265.445,1.24383,
266.099,1.24515,
266.7524,1.24556,
267.406,1.24661,
268.059,1.24902,
268.713,1.249,
269.367,1.25066,
270.02,1.25187,
270.674,1.25313,
271.327,1.25438,
271.981,1.25559,
272.634,1.2573,
273.288,1.25863,
273.9414,1.25952,
274.595,1.26105,
275.248,1.26182,
275.902,1.26325,
276.556,1.26492,
277.209,1.26646,
277.863,1.26813,
278.516,1.26934,
279.17,1.27,
279.823,1.27181,
280.477,1.27305,
281.1304,1.27461,
281.784,1.27499,
282.437,1.27693,
283.091,1.27745,
283.745,1.27936,
284.398,1.28028,
285.052,1.28179,
285.705,1.28218,
286.359,1.28371,
287.0123,1.28485,
287.666,1.28617,
288.319,1.28662,
288.973,1.28875,
289.626,1.28815,
290.28,1.28977,
290.934,1.29113,
291.587,1.29194,
292.241,1.29326,
292.894,1.2948,
293.548,1.2959,
294.2013,1.29663,
294.855,1.29762,
295.508,1.29881,
296.162,1.30028,
296.815,1.30099,
297.469,1.30185,
298.123,1.30377,
298.776,1.30404,
299.43,1.30536,
300.083,1.30636,
300.737,1.30753,
301.3903,1.30855,
302.044,1.30976,
302.697,1.31081,
303.351,1.31183,
304.004,1.3133,
304.658,1.31425,
305.312,1.31572,
305.965,1.3169,
306.619,1.31777,
307.2722,1.31881,
307.926,1.32035,
308.5793,1.32139,
309.233,1.32165,
309.886,1.32303,
310.54,1.32369,
311.193,1.32469,
311.847,1.32647,
312.501,1.3269,
313.154,1.32904,
313.808,1.32959,
314.4612,1.33064,
315.115,1.3314,
315.768,1.33325,
316.422,1.33373,
317.075,1.33511,
317.729,1.33626,
318.382,1.33814,
319.036,1.33811,
319.69,1.33974,
320.343,1.34085,
320.997,1.34186,
321.6502,1.34353,
322.304,1.34481,
322.957,1.34581,
323.611,1.34707,
324.264,1.34791,
324.918,1.34998,
325.571,1.35039,
326.225,1.35093,
326.879,1.35274,
327.532,1.35395,
328.186,1.35482,
328.8392,1.35632,
329.493,1.35658,
330.146,1.35805,
330.8,1.3588,
331.453,1.36012,
332.107,1.36056,
332.76,1.36125,
333.414,1.36279,
334.068,1.36448,
334.7211,1.36406,
335.375,1.36513,
336.028,1.36606,
336.682,1.36692,
337.335,1.36747,
337.989,1.36782,
338.642,1.36877,
339.296,1.36986,
339.949,1.36978,
340.603,1.37005,
341.257,1.37145,
341.9101,1.37164,
342.564,1.37145,
343.217,1.37196,
343.871,1.37264,
344.524,1.37299,
345.178,1.37289,
345.831,1.3738,
346.485,1.37479,
347.138,1.37496,
347.792,1.37624,
348.446,1.37684,
349.0991,1.37708,
349.753,1.37794,
350.406,1.37946,
351.06,1.38013,
351.713,1.38067,
352.367,1.38128,
353.02,1.38315,
353.674,1.38381,
354.327,1.38429,
354.981,1.38525,
355.635,1.38592,
356.288,1.3867,
356.942,1.38783,
357.595,1.38869,
358.249,1.39008,
358.902,1.39098,
359.556,1.39231,
360.209,1.39308,
360.863,1.39334,
361.516,1.3951,
362.17,1.39625,
362.824,1.39726,
363.477,1.39761,
364.131,1.39906,
364.784,1.40079,
365.438,1.40064,
366.091,1.4026,
366.745,1.40304,
367.398,1.40402,
368.052,1.40488,
368.705,1.40658,
369.359,1.40772,
370.013,1.40823,
370.666,1.41013,
371.32,1.41101,
371.973,1.4124,
372.627,1.4132,
373.28,1.41405,
373.934,1.41484,
374.587,1.41682,
375.241,1.41742,
375.894,1.41825,
376.548,1.41959,
377.202,1.42046,
377.855,1.42095,
378.509,1.42248,
379.162,1.42354,
379.816,1.4249,
380.469,1.42569,
381.123,1.42593,
381.776,1.42722,
382.4299,1.42787,
383.083,1.42877,
383.737,1.4299,
384.391,1.43028,
385.044,1.43108,
385.698,1.43165,
386.351,1.43282,
387.005,1.43272,
387.658,1.43436,
388.312,1.43452,
388.965,1.43439,
389.6189,1.43563,
390.272,1.43635,
390.926,1.43662,
391.58,1.43785,
392.233,1.4389,
392.887,1.43968,
393.54,1.44085,
394.194,1.44077,
394.847,1.44213,
395.501,1.4427,
396.154,1.44334,
396.8079,1.4455,
397.461,1.44567,
398.115,1.44658,
398.769,1.4469,
399.422,1.44841,
400.076,1.44884,
400.729,1.44924,
401.383,1.4509,
402.036,1.4516,
402.6898,1.45229,
403.343,1.45336,
403.997,1.45382,
404.65,1.4548,
405.304,1.45657,
405.958,1.4563,
406.611,1.458,
407.265,1.45926,
407.918,1.45934,
408.572,1.45987,
409.225,1.46136,
409.8788,1.46196,
410.532,1.46214,
411.186,1.46356,
411.839,1.46453,
412.493,1.46516,
413.147,1.46535,
413.8,1.46714,
414.454,1.46735,
415.107,1.46786,
415.761,1.46919,
416.414,1.46958,
417.0678,1.47082,
417.721,1.47078,
418.375,1.47107,
419.028,1.47243,
419.682,1.47259,
420.336,1.47337,
420.989,1.47347,
421.643,1.47424,
422.296,1.47483,
422.95,1.47495,
423.603,1.47591,
424.2568,1.47538,
424.91,1.47626,
425.564,1.47622,
426.217,1.47782,
426.871,1.4775,
427.525,1.47697,
428.178,1.47794,
428.832,1.4782,
429.485,1.47992,
430.1387,1.48028,
430.792,1.481,
431.446,1.48178,
432.099,1.48159,
432.753,1.48337,
433.406,1.48325,
434.06,1.48396,
434.714,1.48463,
435.367,1.48627,
436.021,1.48664,
436.674,1.4882,
437.3277,1.48877,
437.981,1.48907,
438.635,1.49026,
439.288,1.4912,
439.942,1.49287,
440.595,1.49498,
441.249,1.49639,
441.903,1.49859,
442.556,1.49898,
443.21,1.50121,
443.863,1.50305,
444.5167,1.50355,
445.17,1.5052,
445.824,1.50546,
446.477,1.50654,
447.131,1.50772,
447.784,1.50842,
448.438,1.50953,
449.092,1.50926,
449.745,1.51004,
450.3986,1.51089,
451.052,1.51245,
451.706,1.51204,
452.359,1.51315,
453.013,1.51273,
453.666,1.51325,
454.32,1.51333,
454.973,1.51331,
455.627,1.51295,
456.281,1.51236,
456.934,1.51279,
457.5876,1.51195,
458.241,1.5117,
458.895,1.511,
459.548,1.51099,
460.202,1.51129,
460.855,1.5105,
461.509,1.51061,
462.162,1.50864,
462.816,1.50895,
463.47,1.50831,
464.123,1.50818,
464.7766,1.5081,
465.43,1.50771,
466.084,1.50823,
466.737,1.5081,
467.391,1.50786,
468.044,1.50931,
468.698,1.50857,
469.351,1.50945,
470.005,1.50865,
470.6585,1.50802,
471.312,1.50831,
471.9656,1.50822,
472.619,1.50892,
473.273,1.51033,
473.926,1.50976,
474.58,1.51035,
475.233,1.5115,
475.887,1.51142,
476.54,1.51329,
477.194,1.51406,
477.8475,1.51537,
478.501,1.51599,
479.155,1.51682,
479.808,1.51745,
480.462,1.51806,
481.115,1.51928,
481.769,1.52009,
482.422,1.52094,
483.076,1.5216,
483.729,1.52283,
484.383,1.52266,
485.0365,1.52264,
485.69,1.52362,
486.344,1.52486,
486.997,1.52515,
487.651,1.52474,
488.304,1.52625,
488.958,1.52621,
489.611,1.52614,
490.265,1.52637,
490.918,1.52783,
491.572,1.5268,
492.2255,1.52753,
492.879,1.52771,
493.533,1.52718,
494.186,1.52731,
494.84,1.52746,
495.493,1.52725,
496.147,1.52701,
496.8,1.52743,
497.454,1.52773,
498.1074,1.5275,
498.761,1.52778,
499.414,1.52849,
500.068,1.52835,
500.722,1.52887,
501.375,1.52816,
502.029,1.52816,
502.682,1.52877,
503.336,1.52875,
503.989,1.52941,
504.643,1.53012,
505.2964,1.5301,
505.95,1.53109,
506.603,1.53135,
507.257,1.53095,
507.911,1.53196,
508.564,1.53214,
509.218,1.53224,
509.871,1.53376,
510.525,1.53346,
511.178,1.53427,
511.832,1.5339,
512.4854,1.5354,
513.139,1.53564,
513.792,1.53572,
514.446,1.53724,
515.1,1.53768,
515.753,1.53795,
516.407,1.53871,
517.06,1.53956,
517.714,1.54084,
518.3673,1.54085,
519.021,1.54089,
519.674,1.54087,
520.328,1.54232,
520.981,1.54321,
521.635,1.54356,
522.289,1.54325,
522.942,1.54427,
523.596,1.54427,
524.249,1.54461,
524.903,1.54483,
525.5563,1.54454,
526.21,1.5444,
526.863,1.54404,
527.517,1.54455,
528.17,1.54416,
528.824,1.54519,
529.478,1.54565,
530.131,1.54519,
530.785,1.54604,
531.438,1.54688,
532.092,1.54682,
532.7453,1.54721,
533.399,1.54843,
534.052,1.54953,
534.706,1.55047,
535.359,1.55043,
536.013,1.55034,
536.667,1.5515,
537.32,1.55217,
537.974,1.55402,
538.627,1.5534,
539.281,1.55454,
539.9343,1.5558,
540.588,1.55603,
541.241,1.55699,
541.895,1.55733,
542.548,1.55736,
543.202,1.55781,
543.856,1.5582,
544.509,1.55845,
545.163,1.55908,
545.8162,1.56002,
546.47,1.56003,
547.123,1.56206,
547.777,1.56136,
548.43,1.56254,
549.084,1.56258,
549.737,1.56183,
550.391,1.56258,
551.045,1.56305,
551.698,1.56251,
552.352,1.56289,
553.0052,1.56339,
553.659,1.56303,
554.312,1.56324,
554.966,1.56439,
555.619,1.56374,
556.273,1.56466,
556.926,1.56515,
557.58,1.56484,
558.234,1.56421,
558.887,1.56441,
559.541,1.56493,
560.1942,1.56526,
560.848,1.56406,
561.501,1.56403,
562.155,1.56326,
562.808,1.56455,
563.462,1.56427,
564.115,1.56415,
564.769,1.56359,
565.423,1.56446,
566.0761,1.56492,
566.73,1.56406,
567.383,1.56434,
568.037,1.56497,
568.69,1.56426,
569.344,1.56483,
569.997,1.56433,
570.651,1.56332,
571.304,1.56362,
571.958,1.5639,
572.612,1.56404,
573.2651,1.56456,
573.919,1.56448,
574.572,1.56499,
575.226,1.56454,
575.879,1.56564,
576.533,1.56596,
577.186,1.56607,
577.84,1.56704,
578.493,1.56732,
579.147,1.56738,
579.801,1.56769,
580.4541,1.5675,
581.108,1.56756,
581.761,1.56851,
582.415,1.56839,
583.068,1.56918,
583.722,1.5697,
584.375,1.57133,
585.029,1.57053,
585.682,1.5706,
586.336,1.57123,
586.99,1.57273,
587.6431,1.57134,
588.297,1.57271,
588.95,1.57336,
589.604,1.5725,
590.257,1.57431,
590.911,1.57474,
591.564,1.576,
592.218,1.57573,
592.871,1.57752,
593.525,1.57593,
594.179,1.57594,
594.832,1.57765,
595.486,1.57773,
596.139,1.57878,
596.793,1.5788,
597.446,1.58046,
598.1,1.57998,
598.753,1.58077,
599.407,1.58179,
600.06,1.58158,
600.714,1.5802,
601.368,1.58231,
602.021,1.58245,
602.675,1.5833,
603.328,1.58323,
603.982,1.58376,
604.635,1.58297,
605.289,1.5831,
605.942,1.5845,
606.596,1.58546,
607.249,1.58459,
607.903,1.58596,
608.557,1.5862,
609.21,1.58598,
609.864,1.58584,
610.517,1.58704,
611.171,1.58705,
611.824,1.58885,
612.478,1.58852,
613.131,1.58949,
613.7849,1.58978,
614.438,1.58997,
615.092,1.59029,
615.746,1.59005,
616.399,1.59044,
617.053,1.59103,
617.706,1.59272,
618.36,1.59204,
619.013,1.59311,
619.667,1.59372,
620.32,1.59375,
620.9739,1.59479,
621.627,1.5952,
622.281,1.59533,
622.935,1.59762,
623.588,1.59813,
624.242,1.59908,
624.895,1.59891,
625.549,1.60003,
626.202,1.59955,
626.856,1.60113,
627.509,1.60047,
628.1629,1.60209,
628.816,1.60171,
629.47,1.60311,
630.124,1.60315,
630.777,1.60394,
631.431,1.60504,
632.084,1.60421,
632.738,1.60547,
633.391,1.60527,
634.0448,1.60546,
634.698,1.60424,
635.3519,1.60397,
636.005,1.60458,
636.659,1.60336,
637.313,1.60278,
637.966,1.60396,
638.62,1.6049,
639.273,1.60571,
639.927,1.60556,
640.58,1.60619,
641.2338,1.60693,
641.887,1.60688,
642.541,1.6066,
643.194,1.60598,
643.848,1.60592,
644.502,1.6069,
645.155,1.60593,
645.809,1.60573,
646.462,1.60649,
647.116,1.60559,
647.769,1.6066,
648.4228,1.60641,
649.076,1.60513,
649.73,1.60543,
650.383,1.60658,
651.037,1.60697,
651.691,1.60608,
652.344,1.60797,
652.998,1.60583,
653.651,1.60644,
654.305,1.60785,
654.958,1.60844,
655.6118,1.60826,
656.265,1.60943,
656.919,1.60919,
657.572,1.6094,
658.226,1.61029,
658.88,1.6096,
659.533,1.61005,
660.187,1.61116,
660.84,1.61075,
661.4937,1.61153,
662.147,1.61122,
662.801,1.61207,
663.454,1.61277,
664.108,1.61328,
664.761,1.61462,
665.415,1.61442,
666.069,1.61434,
666.722,1.61611,
667.376,1.61548,
668.029,1.61486,
668.6827,1.61544,
669.336,1.61662,
669.99,1.61744,
670.643,1.61859,
671.297,1.61876,
671.95,1.61928,
672.604,1.61974,
673.258,1.61998,
673.911,1.62035,
674.565,1.62137,
675.218,1.62118,
675.8717,1.62143,
676.525,1.62235,
677.179,1.622,
677.832,1.62288,
678.486,1.62311,
679.139,1.62342,
679.793,1.62328,
680.447,1.62379,
681.1,1.62427,
681.7536,1.62339,
682.407,1.62364,
683.061,1.62428,
683.714,1.62644,
684.368,1.62384,
685.021,1.62474,
685.675,1.62564,
686.328,1.62581,
686.982,1.62544,
687.636,1.62408,
688.289,1.62571,
688.9426,1.6247,
689.596,1.62459,
690.25,1.62541,
690.903,1.62686,
691.557,1.62563,
692.21,1.62737,
692.864,1.62564,
693.517,1.62598,
694.171,1.62562,
694.825,1.62531,
695.478,1.62751,
696.1316,1.6271,
696.785,1.62787,
697.439,1.62835,
698.092,1.62831,
698.746,1.62895,
699.399,1.62899,
700.053,1.62864,
700.706,1.62927,
701.36,1.6282,
702.014,1.62851,
702.667,1.63014,
703.3206,1.63011,
703.974,1.63034,
704.628,1.63117,
705.281,1.63109,
705.935,1.63149,
706.588,1.63247,
707.242,1.63403,
707.895,1.63471,
708.549,1.63297,
709.2025,1.63343,
709.856,1.63364,
710.51,1.63393,
711.163,1.63545,
711.817,1.63604,
712.47,1.63565,
713.124,1.63561,
713.777,1.63586,
714.431,1.63556,
715.084,1.63534,
715.738,1.63675,
716.3915,1.63647,
717.045,1.63613,
717.699,1.63823,
718.352,1.63861,
719.006,1.64008,
719.659,1.64168,
720.313,1.64256,
720.966,1.64297,
721.62,1.64218,
722.273,1.6414,
722.927,1.64158,
723.5805,1.64298,
724.234,1.64249,
724.888,1.64439,
725.541,1.64472,
726.195,1.64392,
726.848,1.64503,
727.502,1.64681,
728.155,1.64721,
728.809,1.64615,
729.4624,1.64639,
730.116,1.64681,
730.769,1.64822,
731.423,1.64851,
732.077,1.64742,
732.73,1.64862,
733.384,1.64781,
734.037,1.64831,
734.691,1.64792,
735.344,1.64941,
735.998,1.64994,
736.6514,1.64918,
737.305,1.64967,
737.958,1.65143,
738.612,1.65054,
739.266,1.64981,
739.919,1.65056,
740.573,1.64964,
741.226,1.65003,
741.88,1.65078,
742.533,1.65164,
743.187,1.65134,
743.8404,1.65343,
744.494,1.6529,
745.147,1.65271,
745.801,1.65191,
746.455,1.65353,
747.108,1.65183,
747.762,1.65266,
748.415,1.65284,
749.069,1.65348,
749.722,1.65257,
750.376,1.6537,
751.0294,1.65386,
751.683,1.65458,
752.336,1.65523,
752.99,1.65455,
753.644,1.65706,
754.297,1.65586,
754.951,1.65645,
755.604,1.65675,
756.258,1.65784,
756.9113,1.65713,
757.565,1.65812,
758.218,1.65851,
758.872,1.65949,
759.525,1.65966,
760.179,1.65844,
760.833,1.65908,
761.486,1.65871,
762.14,1.65983,
762.793,1.6589,
763.447,1.65969,
764.1003,1.65952,
764.754,1.6592,
765.407,1.65882,
766.061,1.65817,
766.714,1.65975,
767.368,1.65829,
768.022,1.65966,
768.675,1.6606,
769.329,1.66022,
769.982,1.6604,
770.636,1.66004,
771.2893,1.66072,
771.943,1.66272,
772.596,1.66288,
773.25,1.66419,
773.903,1.66429,
774.557,1.66521,
775.211,1.66666,
775.864,1.66807,
776.518,1.66788,
777.1712,1.66743,
777.825,1.66898,
778.478,1.66877,
779.132,1.66909,
779.785,1.67034,
780.439,1.66972,
781.092,1.66875,
781.746,1.66854,
782.4,1.66709,
783.053,1.66843,
783.707,1.66703,
784.3602,1.66764,
785.014,1.66656,
785.667,1.6672,
786.321,1.66716,
786.974,1.66665,
787.628,1.66878,
788.281,1.6699,
788.935,1.66985,
789.589,1.66962,
790.242,1.66932,
790.896,1.66884,
791.5492,1.66943,
792.203,1.66963,
792.856,1.67045,
793.51,1.6703,
794.163,1.67019,
794.817,1.67099,
795.47,1.67214,
796.124,1.6729,
796.778,1.6743,
797.4311,1.67204,
798.085,1.67177,
798.7382,1.67321,
799.392,1.6727,
800.045,1.67401,
800.699,1.67242,
801.352,1.67302,
802.006,1.6729,
802.659,1.67456,
803.313,1.67489,
803.967,1.67637,
804.6201,1.6789,
805.274,1.67783,
805.927,1.67807,
806.581,1.67853,
807.234,1.67804,
807.888,1.67649,
808.541,1.67634,
809.195,1.67746,
809.848,1.67659,
810.502,1.67705,
811.156,1.67692,
811.8091,1.67767,
812.463,1.67698,
813.116,1.67748,
813.77,1.67679,
814.423,1.67786,
815.077,1.67962,
815.73,1.67806,
816.384,1.6787,
817.037,1.67792,
817.691,1.67857,
818.345,1.67826,
818.9981,1.67859,
819.652,1.67934,
820.305,1.67981,
820.959,1.68027,
821.612,1.67983,
822.266,1.67912,
822.919,1.68064,
823.573,1.68154,
824.226,1.68097,
824.88,1.68162,
825.534,1.68047,
826.187,1.6807,
826.841,1.68084,
827.494,1.6815,
828.148,1.68217,
828.801,1.68087,
829.455,1.68043,
830.108,1.68087,
830.762,1.68171,
831.415,1.68282,
832.069,1.68385,
832.723,1.68334,
833.376,1.68369,
834.03,1.68143,
834.683,1.68469,
835.337,1.68434,
835.99,1.68463,
836.644,1.68558,
837.297,1.68542,
837.951,1.68683,
838.604,1.68784,
839.258,1.68696,
839.912,1.68642,
840.565,1.68838,
841.219,1.68798,
841.872,1.68699,
842.526,1.68607,
843.179,1.6857,
843.833,1.68567,
844.486,1.6852,
845.1399,1.68588,
845.793,1.68627,
846.447,1.6861,
847.101,1.6877,
847.754,1.68684,
848.408,1.6881,
849.061,1.68843,
849.715,1.69067,
850.368,1.68945,
851.022,1.6915,
851.675,1.68932,
852.3289,1.693,
852.982,1.69175,
853.636,1.69331,
854.29,1.69277,
854.943,1.69199,
855.597,1.69062,
856.25,1.69172,
856.904,1.69242,
857.557,1.69283,
858.211,1.69403,
858.864,1.69367,
859.5179,1.6934,
860.171,1.69294,
860.825,1.69428,
861.479,1.69341,
862.132,1.69322,
862.786,1.69498,
863.439,1.69306,
864.093,1.69335,
864.746,1.69175,
865.4,1.69265,
866.053,1.69312,
866.7069,1.69207,
867.36,1.69268,
868.014,1.69115,
868.668,1.69267,
869.321,1.69109,
869.975,1.69034,
870.628,1.68793,
871.282,1.68918,
871.935,1.69023,
872.5888,1.69107,
873.242,1.68988,
873.896,1.68863,
874.549,1.69012,
875.203,1.68987,
875.857,1.6882,
876.51,1.68824,
877.164,1.68791,
877.817,1.68805,
878.471,1.68878,
879.124,1.68882,
879.7778,1.69151,
880.431,1.69065,
881.085,1.6903,
881.738,1.68865,
882.392,1.68853,
883.046,1.68714,
883.699,1.6854,
884.353,1.68632,
885.006,1.6866,
885.66,1.68545,
886.313,1.68644,
886.9668,1.68619,
887.62,1.68758,
888.274,1.68783,
888.927,1.68801,
889.581,1.68776,
890.235,1.68676,
890.888,1.68943,
891.542,1.68939,
892.195,1.68905,
892.8487,1.68935,
893.502,1.68914,
894.156,1.68823,
894.809,1.68753,
895.463,1.68766,
896.116,1.68853,
896.77,1.68731,
897.424,1.68611,
898.077,1.68601,
898.731,1.68523,
899.384,1.68505,
900.0377,1.68247,
900.691,1.68,
901.345,1.68132,
901.998,1.68211,
902.652,1.68202,
903.305,1.68359,
903.959,1.6814,
904.613,1.68268,
905.266,1.68419,
905.92,1.68211,
906.573,1.6833,
907.2267,1.68295,
907.88,1.68052,
908.534,1.67975,
909.187,1.67709,
909.841,1.67652,
910.494,1.6789,
911.148,1.67946,
911.802,1.68007,
912.455,1.67815,
913.109,1.68006,
913.762,1.67813,
914.4157,1.67848,
915.069,1.6766,
915.723,1.67681,
916.376,1.67568,
917.03,1.67538,
917.683,1.67499,
918.337,1.67627,
918.991,1.6768,
919.644,1.67422,
920.2976,1.67429,
920.951,1.67527,
921.605,1.674,
922.258,1.67341,
922.912,1.67173,
923.565,1.67066,
924.219,1.67019,
924.872,1.66956,
925.526,1.66714,
926.18,1.66614,
926.833,1.66667,
927.4866,1.6665,
928.14,1.66467,
928.794,1.66341,
929.447,1.66159,
930.101,1.6621,
930.754,1.66384,
931.408,1.66432,
932.061,1.6632,
932.715,1.66534,
933.369,1.66494,
934.022,1.66492,
934.6756,1.66567,
935.329,1.6621,
935.983,1.66075,
936.636,1.66285,
937.29,1.65918,
937.943,1.66063,
938.597,1.66173,
939.25,1.65977,
939.904,1.65872,
940.5575,1.65993,
941.211,1.65919,
941.865,1.65767,
942.518,1.65821,
943.172,1.65826,
943.825,1.65877,
944.479,1.658,
945.132,1.65612,
945.786,1.65441,
946.439,1.65388,
947.093,1.65229,
947.7465,1.65111,
948.4,1.6507,
949.054,1.65075,
949.707,1.64897,
950.361,1.64577,
951.014,1.64643,
951.668,1.64578,
952.321,1.64483,
952.975,1.64441,
953.628,1.64496,
954.282,1.64225,
954.9355,1.64127,
955.589,1.64054,
956.243,1.64063,
956.896,1.64297,
957.55,1.63938,
958.203,1.64053,
958.857,1.64077,
959.51,1.64006,
960.164,1.64126,
960.8174,1.64074,
961.471,1.64083,
962.1245,1.63873,
962.778,1.63934,
963.432,1.63874,
964.085,1.6367,
964.739,1.63741,
965.392,1.63694,
966.046,1.63527,
966.699,1.63647,
967.353,1.63394,
968.0064,1.63343,
968.66,1.63393,
969.313,1.63118,
969.967,1.63232,
970.621,1.6329,
971.274,1.63334,
971.928,1.63318,
972.581,1.63166,
973.235,1.6295,
973.888,1.62846,
974.542,1.62792,
975.1954,1.62644,
975.849,1.6275,
976.502,1.62578,
977.156,1.62459,
977.81,1.62434,
978.463,1.62531,
979.117,1.624,
979.77,1.62361,
980.424,1.62159,
981.077,1.62144,
981.731,1.61844,
982.3844,1.6177,
983.038,1.61884,
983.691,1.61916,
984.345,1.62005,
984.999,1.61672,
985.652,1.61644,
986.306,1.61756,
986.959,1.61793,
987.613,1.6176,
988.2663,1.61977,
988.92,1.61807,
989.573,1.61565,
990.227,1.61761,
990.88,1.61589,
991.534,1.61591,
992.188,1.61395,
992.841,1.61332,
993.495,1.61247,
994.148,1.61122,
994.802,1.61113,
995.4553,1.60952,
996.109,1.60975,
996.762,1.60885,
997.416,1.60748,
998.069,1.60608,
998.723,1.60506,
999.377,1.60772,
1000.03,1.60481,
1000.68,1.60498,
1001.34,1.60325,
1001.99,1.60131,
1002.64,1.60299,
1003.3,1.60029,
1003.95,1.59781,
1004.6,1.59728,
1005.26,1.59679,
1005.91,1.59644,
1006.57,1.59683,
1007.22,1.59462,
1007.87,1.59309,
1008.53,1.59237,
1009.18,1.59141,
1009.83,1.58649,
1010.49,1.58551,
1011.14,1.585,
1011.79,1.586,
1012.45,1.58239,
1013.1,1.58206,
1013.75,1.57918,
1014.41,1.58,
1015.06,1.57835,
1015.72,1.57739,
1016.37,1.5754,
1017.02,1.57283,
1017.68,1.57471,
1018.33,1.57227,
1018.98,1.57217,
1019.64,1.56997,
1020.29,1.57179,
1020.94,1.57085,
1021.6,1.57274,
1022.25,1.56939,
1022.9,1.56853,
1023.56,1.56768,
1024.21,1.56828,
1024.86,1.56434,
1025.52,1.56404,
1026.17,1.56367,
1026.83,1.56207,
1027.48,1.56309,
1028.13,1.56327,
1028.79,1.56071,
1029.44,1.56095,
1030.09,1.5623,
1030.75,1.56345,
1031.4,1.56321,
1032.05,1.56021,
1032.71,1.55955,
1033.36,1.55982,
1034.01,1.55557,
1034.67,1.55541,
1035.32,1.55506,
1035.98,1.55327,
1036.63,1.5509,
1037.28,1.55014,
1037.94,1.5494,
1038.59,1.5533,
1039.24,1.55102,
1039.9,1.54979,
1040.55,1.54697,
1041.2,1.54687,
1041.86,1.54328,
1042.51,1.544,
1043.16,1.5439,
1043.82,1.54277,
1044.47,1.5391,
1045.12,1.54124,
1045.78,1.54057,
1046.43,1.53922,
1047.09,1.54079,
1047.74,1.54214,
1048.39,1.53897,
1049.05,1.53994,
1049.7,1.54082,
1050.35,1.53759,
1051.01,1.53997,
1051.66,1.53867,
1052.31,1.53666,
1052.97,1.5352,
1053.62,1.53103,
1054.27,1.53023,
1054.93,1.53041,
1055.58,1.52588,
1056.235,1.52581,
1056.89,1.52421,
1057.54,1.52385,
1058.2,1.52196,
1058.85,1.52034,
1059.5,1.52078,
1060.16,1.51897,
1060.81,1.51806,
1061.46,1.5169,
1062.12,1.51542,
1062.77,1.51265,
1063.424,1.5132,
1064.08,1.51187,
1064.73,1.51222,
1065.38,1.51074,
1066.04,1.50913,
1066.69,1.51075,
1067.35,1.51102,
1068,1.51047,
1068.65,1.50948,
1069.31,1.50812,
1069.96,1.50538,
1070.613,1.50527,
1071.27,1.50285,
1071.92,1.50274,
1072.57,1.50318,
1073.23,1.50083,
1073.88,1.49808,
1074.53,1.49698,
1075.19,1.49642,
1075.84,1.49668,
1076.49,1.49025,
1077.15,1.49384,
1077.802,1.49169,
1078.46,1.48906,
1079.11,1.48696,
1079.76,1.48809,
1080.42,1.48912,
1081.07,1.4886,
1081.72,1.48593,
1082.38,1.48794,
1083.03,1.48561,
1083.68,1.48504,
1084.34,1.48387,
1084.99,1.48206,
1085.64,1.482,
1086.3,1.47834,
1086.95,1.47931,
1087.61,1.47938,
1088.26,1.47683,
1088.91,1.47569,
1089.57,1.47347,
1090.22,1.47392,
1090.87,1.47321,
1091.53,1.472,
1092.18,1.47103,
1092.83,1.46818,
1093.49,1.46773,
1094.14,1.46541,
1094.79,1.45976,
1095.45,1.45883,
1096.1,1.45679,
1096.75,1.4566,
1097.41,1.45333,
1098.06,1.45066,
1098.72,1.45032,
1099.37,1.44664,
1099.98,1.44664,