File: data/LQG_putty/graphite-putty samples/Specific Heat/Graphite/sample2.csv
#EXPORTTYPE:                 ,DATA COMPARE                  ,
#FILE:                       ,sample2.ngb-ds3               ,
#FORMAT:                     ,NETZSCH5                      ,
#FTYPE:                      ,ANSI                          ,
#IDENTITY:                   ,graphite                      ,
#DECIMAL:                    ,POINT                         ,
#SEPARATOR:                  ,COMMA                         ,
#MTYPE:                      ,CP                            ,
#INSTRUMENT:                 ,NETZSCH STA 449F3             ,
#PROJECT:                    ,Gen3CSP                       ,
#DATE/TIME:                  ,12/12/2022 10:05:54 AM (UTC-5),
#CORR. FILE:                 ,baseline2.ngb-bs3             ,
#TEMPCAL:                    ,TCALZERO.TCX                  ,
#SENSITIVITY:                ,SENSZERO.EXX                  ,
#LABORATORY:                 ,STEEL                         ,
#OPERATOR:                   ,MJA                           ,
#REMARK:                     ,                              ,
#SAMPLE:                     ,sample2                       ,
#SAMPLE MASS /mg:            ,48.8,
#MATERIAL:                   ,                              ,
#REFERENCE:                  ,                              ,
#REFERENCE MASS /mg:         ,0,
#TYPE OF CRUCIBLE:           ,PtRh20 85 �l, with lid
#SAMPLE CRUCIBLE MASS /mg:   ,0,
#REFERENCE CRUCIBLE MASS /mg:,0,
#DSC RANGE /�V:              ,5000,
#TG RANGE /mg:               ,35000,
#TAU-R:                      ,---                           ,
#CORR. CODE:                 ,0,
#EXO:                        ,-1,
#RANGE:                      ,100�C/15.0(K/min)/1180�C      ,
#SEGMENT:                    ,S5/7                          ,
#SEG. 5:                     ,100�C/15.0(K/min)/1180�C      ,
,,
##Temp./C,Cp(5)/(J/(g*K)),
150.2568,-0.46783,
150.891,-0.46783,
151.524,-0.46783,
152.158,-0.46783,
152.792,-0.46783,
153.426,-0.46783,
154.059,-0.46783,
154.693,-0.46783,
155.327,-0.46783,
155.96,-0.46783,
156.594,-0.46783,
157.228,-0.46783,
157.862,-0.46783,
158.495,-0.46783,
159.129,-0.46783,
159.763,-0.46783,
160.397,1.2925,
161.0304,1.04845,
161.664,1.05565,
162.298,1.05563,
162.932,1.05517,
163.565,1.05542,
164.1991,1.05574,
164.833,1.0559,
165.467,1.05546,
166.1,1.05591,
166.734,1.05596,
167.368,1.0559,
168.002,1.05622,
168.635,1.056,
169.269,1.05664,
169.903,1.05646,
170.537,1.05682,
171.17,1.05706,
171.804,1.05696,
172.438,1.05729,
173.071,1.05751,
173.705,1.05756,
174.339,1.05797,
174.9727,1.05798,
175.606,1.05796,
176.24,1.05805,
176.874,1.05858,
177.508,1.05894,
178.1414,1.05932,
178.775,1.0593,
179.409,1.05963,
180.043,1.05984,
180.676,1.05969,
181.3101,1.05988,
181.944,1.06031,
182.578,1.06055,
183.211,1.06068,
183.845,1.06044,
184.479,1.06111,
185.113,1.06158,
185.746,1.06161,
186.38,1.0614,
187.014,1.06226,
187.648,1.06268,
188.281,1.06309,
188.915,1.06341,
189.549,1.06392,
190.182,1.0638,
190.816,1.06484,
191.45,1.0654,
192.0837,1.06495,
192.717,1.06603,
193.351,1.0664,
193.985,1.06631,
194.619,1.0673,
195.2524,1.06815,
195.886,1.06863,
196.52,1.06866,
197.154,1.07002,
197.787,1.07041,
198.421,1.07172,
199.055,1.07191,
199.689,1.0725,
200.322,1.07395,
200.956,1.07468,
201.59,1.07555,
202.224,1.07642,
202.857,1.07737,
203.491,1.07831,
204.125,1.08006,
204.759,1.08054,
205.392,1.0826,
206.026,1.08406,
206.66,1.08551,
207.293,1.08695,
207.927,1.08897,
208.561,1.09062,
209.1947,1.09251,
209.828,1.09392,
210.462,1.09618,
211.096,1.09816,
211.73,1.10029,
212.3634,1.10166,
212.997,1.10421,
213.631,1.10603,
214.265,1.10794,
214.898,1.11042,
215.532,1.11271,
216.166,1.11426,
216.8,1.11651,
217.433,1.11878,
218.067,1.12025,
218.701,1.12215,
219.335,1.12463,
219.968,1.12683,
220.602,1.12808,
221.236,1.13023,
221.87,1.13173,
222.503,1.13345,
223.137,1.13471,
223.771,1.1364,
224.404,1.13819,
225.038,1.13965,
225.672,1.14135,
226.3057,1.14311,
226.939,1.14477,
227.573,1.14576,
228.207,1.14758,
228.841,1.14867,
229.4744,1.15091,
230.108,1.15158,
230.742,1.15313,
231.376,1.15509,
232.009,1.15621,
232.643,1.15746,
233.277,1.15871,
233.911,1.16034,
234.544,1.16143,
235.178,1.16368,
235.812,1.16451,
236.446,1.16499,
237.079,1.16654,
237.713,1.16782,
238.347,1.16899,
238.981,1.1706,
239.614,1.17148,
240.248,1.17256,
240.882,1.17349,
241.515,1.17462,
242.149,1.17586,
242.783,1.17722,
243.4167,1.17865,
244.05,1.17955,
244.684,1.18074,
245.318,1.18133,
245.952,1.183,
246.585,1.18383,
247.219,1.18557,
247.853,1.18564,
248.487,1.18658,
249.12,1.1876,
249.754,1.18851,
250.388,1.189,
251.022,1.19073,
251.655,1.19148,
252.289,1.19245,
252.923,1.19285,
253.557,1.19425,
254.1903,1.19518,
254.824,1.19574,
255.458,1.19713,
256.092,1.19798,
256.725,1.19868,
257.359,1.2,
257.993,1.20161,
258.626,1.2022,
259.26,1.20262,
259.894,1.20427,
260.5277,1.2043,
261.161,1.20634,
261.795,1.20657,
262.429,1.20778,
263.063,1.20949,
263.696,1.21003,
264.33,1.21139,
264.964,1.21219,
265.598,1.21359,
266.231,1.21415,
266.865,1.21533,
267.499,1.21647,
268.133,1.21674,
268.766,1.21703,
269.4,1.21945,
270.034,1.22011,
270.668,1.22033,
271.3013,1.22122,
271.935,1.22322,
272.569,1.22355,
273.203,1.2243,
273.836,1.22542,
274.47,1.22662,
275.104,1.22773,
275.737,1.22861,
276.371,1.22974,
277.005,1.23093,
277.639,1.23145,
278.272,1.23216,
278.906,1.23411,
279.54,1.2344,
280.174,1.23581,
280.807,1.23673,
281.441,1.23759,
282.075,1.23959,
282.709,1.24051,
283.342,1.24201,
283.976,1.24271,
284.61,1.24327,
285.2436,1.24475,
285.877,1.24567,
286.511,1.24711,
287.145,1.24769,
287.779,1.24916,
288.4123,1.25002,
289.046,1.25069,
289.68,1.2524,
290.314,1.25355,
290.947,1.25525,
291.581,1.256,
292.215,1.25679,
292.848,1.25802,
293.482,1.25885,
294.116,1.26003,
294.75,1.26067,
295.383,1.26171,
296.017,1.26248,
296.651,1.26358,
297.285,1.26465,
297.918,1.26546,
298.552,1.26644,
299.186,1.26761,
299.82,1.26909,
300.453,1.26952,
301.087,1.27085,
301.721,1.27173,
302.3546,1.27255,
302.988,1.27323,
303.622,1.27446,
304.256,1.27501,
304.89,1.27646,
305.5233,1.27765,
306.157,1.279,
306.791,1.27981,
307.425,1.28069,
308.058,1.28201,
308.692,1.283,
309.326,1.28383,
309.959,1.28496,
310.593,1.28538,
311.227,1.28623,
311.861,1.28652,
312.494,1.28789,
313.128,1.2885,
313.762,1.28877,
314.396,1.28995,
315.029,1.29037,
315.663,1.29112,
316.297,1.29144,
316.931,1.29254,
317.564,1.29333,
318.198,1.29378,
318.832,1.29525,
319.4656,1.29572,
320.099,1.29679,
320.733,1.2981,
321.367,1.29777,
322.001,1.29972,
322.6343,1.30027,
323.268,1.30147,
323.902,1.30199,
324.536,1.30316,
325.169,1.30409,
325.803,1.30466,
326.437,1.30581,
327.07,1.30699,
327.704,1.3079,
328.338,1.30861,
328.972,1.30935,
329.605,1.31095,
330.239,1.31207,
330.873,1.31246,
331.507,1.31408,
332.14,1.31487,
332.774,1.3151,
333.4079,1.31612,
334.042,1.3171,
334.675,1.31865,
335.309,1.31882,
335.943,1.3204,
336.5766,1.32117,
337.21,1.32211,
337.844,1.32304,
338.478,1.32467,
339.112,1.3255,
339.7453,1.3263,
340.379,1.32734,
341.013,1.32791,
341.647,1.32932,
342.28,1.33039,
342.914,1.33096,
343.548,1.33079,
344.181,1.33216,
344.815,1.33312,
345.449,1.33394,
346.083,1.33433,
346.716,1.33527,
347.35,1.33587,
347.984,1.3372,
348.618,1.33688,
349.251,1.33902,
349.885,1.3396,
350.5189,1.33969,
351.153,1.34022,
351.786,1.34117,
352.42,1.34213,
353.054,1.34252,
353.6876,1.34406,
354.321,1.3441,
354.955,1.34395,
355.589,1.34534,
356.223,1.34621,
356.856,1.34719,
357.49,1.34792,
358.124,1.34745,
358.758,1.34905,
359.391,1.34987,
360.025,1.3502,
360.659,1.35109,
361.292,1.35162,
361.926,1.35292,
362.56,1.35297,
363.194,1.35331,
363.827,1.35477,
364.4612,1.35567,
365.095,1.3563,
365.729,1.35709,
366.362,1.35741,
366.996,1.35865,
367.6299,1.36031,
368.264,1.36119,
368.897,1.36156,
369.531,1.36258,
370.165,1.36309,
370.7986,1.36392,
371.432,1.36441,
372.066,1.36555,
372.7,1.36591,
373.334,1.36677,
373.967,1.36754,
374.601,1.36845,
375.235,1.3692,
375.869,1.37046,
376.502,1.3713,
377.136,1.37283,
377.77,1.37295,
378.403,1.37452,
379.037,1.37553,
379.671,1.3769,
380.305,1.3782,
380.938,1.37907,
381.5722,1.38026,
382.206,1.38207,
382.84,1.38327,
383.473,1.38419,
384.107,1.38573,
384.7409,1.38735,
385.375,1.38837,
386.008,1.38947,
386.642,1.39112,
387.276,1.39087,
387.9096,1.39185,
388.543,1.39316,
389.177,1.39269,
389.811,1.3939,
390.445,1.39398,
391.078,1.39523,
391.712,1.39535,
392.346,1.39598,
392.98,1.39604,
393.613,1.39698,
394.247,1.39719,
394.881,1.39786,
395.514,1.39779,
396.148,1.39862,
396.782,1.39876,
397.416,1.39798,
398.049,1.39888,
398.6832,1.39951,
399.317,1.4003,
399.951,1.40069,
400.584,1.40101,
401.218,1.401,
401.8519,1.4021,
402.486,1.40195,
403.119,1.40245,
403.753,1.40246,
404.387,1.40324,
405.021,1.40447,
405.654,1.40419,
406.288,1.40561,
406.922,1.40534,
407.556,1.40637,
408.189,1.40676,
408.823,1.40745,
409.457,1.40758,
410.091,1.40784,
410.724,1.40963,
411.358,1.40983,
411.992,1.41038,
412.6255,1.41028,
413.259,1.41149,
413.893,1.41238,
414.527,1.4128,
415.16,1.41349,
415.7942,1.41335,
416.428,1.41414,
417.062,1.41479,
417.695,1.41563,
418.329,1.41572,
418.9629,1.41654,
419.597,1.41752,
420.23,1.4161,
420.864,1.4175,
421.498,1.41817,
422.132,1.41933,
422.765,1.41991,
423.399,1.42001,
424.033,1.42019,
424.667,1.42132,
425.3,1.42162,
425.934,1.42229,
426.568,1.42326,
427.202,1.42421,
427.835,1.42489,
428.469,1.42603,
429.103,1.42634,
429.7365,1.42767,
430.37,1.42788,
431.004,1.42869,
431.638,1.42975,
432.271,1.43012,
432.9052,1.43056,
433.539,1.43128,
434.173,1.4324,
434.806,1.43302,
435.44,1.43334,
436.074,1.43435,
436.708,1.43454,
437.341,1.43531,
437.975,1.43593,
438.609,1.4365,
439.243,1.43652,
439.876,1.43818,
440.51,1.43851,
441.144,1.43985,
441.778,1.44036,
442.411,1.44002,
443.045,1.44108,
443.6788,1.44177,
444.313,1.44243,
444.946,1.44371,
445.58,1.44401,
446.214,1.44512,
446.8475,1.44589,
447.481,1.44673,
448.115,1.44707,
448.749,1.44741,
449.382,1.44829,
450.0162,1.44997,
450.65,1.44971,
451.284,1.44981,
451.917,1.45039,
452.551,1.45133,
453.185,1.45192,
453.819,1.45281,
454.452,1.45265,
455.086,1.45413,
455.72,1.45379,
456.354,1.45346,
456.987,1.45555,
457.621,1.45502,
458.255,1.45561,
458.889,1.45607,
459.522,1.45602,
460.156,1.45627,
460.7898,1.45637,
461.424,1.4561,
462.057,1.45592,
462.691,1.4558,
463.325,1.45601,
463.9585,1.45647,
464.592,1.45642,
465.226,1.45586,
465.86,1.45591,
466.493,1.45575,
467.1272,1.45572,
467.761,1.4558,
468.395,1.45569,
469.028,1.45568,
469.662,1.45615,
470.296,1.45523,
470.93,1.4553,
471.563,1.45474,
472.197,1.45596,
472.831,1.45474,
473.465,1.45496,
474.098,1.4554,
474.732,1.45618,
475.366,1.45566,
476,1.45624,
476.633,1.45682,
477.267,1.45659,
477.9008,1.45697,
478.535,1.4577,
479.168,1.45772,
479.802,1.45774,
480.436,1.45778,
481.0695,1.45815,
481.703,1.45882,
482.337,1.45964,
482.971,1.46001,
483.604,1.4603,
484.238,1.46144,
484.872,1.46138,
485.506,1.46075,
486.139,1.46245,
486.773,1.46264,
487.407,1.46277,
488.041,1.46185,
488.674,1.46259,
489.308,1.46185,
489.942,1.46269,
490.576,1.46221,
491.209,1.46179,
491.8431,1.4617,
492.477,1.4619,
493.111,1.46171,
493.744,1.46257,
494.378,1.46217,
495.0118,1.46099,
495.646,1.46146,
496.279,1.46229,
496.913,1.4623,
497.547,1.46338,
498.1805,1.46269,
498.814,1.46336,
499.448,1.46417,
500.082,1.46479,
500.715,1.46457,
501.349,1.46523,
501.983,1.4652,
502.617,1.46582,
503.25,1.46597,
503.884,1.46721,
504.518,1.46638,
505.152,1.46699,
505.785,1.46741,
506.419,1.46769,
507.053,1.468,
507.687,1.46891,
508.32,1.46924,
508.9541,1.46919,
509.588,1.4689,
510.222,1.47085,
510.855,1.47049,
511.489,1.47094,
512.1228,1.47125,
512.757,1.47158,
513.39,1.47171,
514.024,1.4722,
514.658,1.47156,
515.292,1.4709,
515.925,1.47147,
516.559,1.47207,
517.193,1.47209,
517.826,1.47158,
518.46,1.47238,
519.094,1.47236,
519.728,1.47197,
520.361,1.47301,
520.995,1.47314,
521.629,1.47323,
522.263,1.47322,
522.8964,1.47302,
523.53,1.4734,
524.164,1.47234,
524.798,1.47333,
525.431,1.47225,
526.0651,1.47233,
526.699,1.4729,
527.333,1.47334,
527.966,1.47343,
528.6,1.4722,
529.2338,1.47324,
529.868,1.47352,
530.501,1.47336,
531.135,1.47339,
531.769,1.47382,
532.403,1.47353,
533.036,1.47276,
533.67,1.47268,
534.304,1.47237,
534.937,1.47266,
535.571,1.47187,
536.205,1.47087,
536.839,1.46972,
537.472,1.46959,
538.106,1.46971,
538.74,1.46876,
539.374,1.46784,
540.0074,1.46662,
540.641,1.46688,
541.275,1.46617,
541.909,1.46521,
542.542,1.46464,
543.1761,1.46458,
543.81,1.46346,
544.444,1.46348,
545.077,1.46366,
545.711,1.46344,
546.3448,1.46238,
546.979,1.46278,
547.612,1.46212,
548.246,1.46162,
548.88,1.46094,
549.514,1.46087,
550.147,1.46125,
550.781,1.45932,
551.415,1.45977,
552.048,1.4595,
552.682,1.45923,
553.316,1.45907,
553.95,1.45915,
554.583,1.45862,
555.217,1.45802,
555.851,1.45784,
556.485,1.45735,
557.1184,1.45738,
557.752,1.45771,
558.386,1.45731,
559.02,1.45742,
559.653,1.45788,
560.2871,1.45723,
560.921,1.45747,
561.555,1.45788,
562.188,1.45783,
562.822,1.45757,
563.456,1.45768,
564.09,1.45826,
564.723,1.45858,
565.357,1.45908,
565.991,1.4589,
566.625,1.45973,
567.258,1.4597,
567.892,1.46013,
568.526,1.45915,
569.159,1.45908,
569.793,1.45973,
570.427,1.45983,
571.0607,1.46009,
571.694,1.4611,
572.328,1.46062,
572.962,1.46039,
573.596,1.46126,
574.2294,1.46147,
574.863,1.46125,
575.497,1.4618,
576.131,1.46292,
576.764,1.46246,
577.3981,1.46284,
578.032,1.46385,
578.666,1.46315,
579.299,1.46305,
579.933,1.46297,
580.567,1.4632,
581.201,1.46363,
581.834,1.4644,
582.468,1.4642,
583.102,1.46348,
583.736,1.46421,
584.369,1.46363,
585.003,1.46372,
585.637,1.46341,
586.27,1.46262,
586.904,1.46263,
587.538,1.46221,
588.1717,1.4609,
588.805,1.46047,
589.439,1.46052,
590.073,1.46046,
590.707,1.45949,
591.3404,1.46048,
591.974,1.46034,
592.608,1.45854,
593.242,1.45845,
593.875,1.45797,
594.509,1.45728,
595.143,1.45683,
595.777,1.45761,
596.41,1.45802,
597.044,1.4575,
597.678,1.45815,
598.312,1.4578,
598.945,1.45845,
599.579,1.45882,
600.213,1.45859,
600.847,1.45805,
601.48,1.45873,
602.114,1.45902,
602.748,1.45952,
603.381,1.45901,
604.015,1.46012,
604.649,1.45985,
605.2827,1.46017,
605.916,1.4604,
606.55,1.46162,
607.184,1.46139,
607.818,1.46216,
608.4514,1.46169,
609.085,1.46283,
609.719,1.46283,
610.353,1.46281,
610.986,1.46213,
611.62,1.46396,
612.254,1.46248,
612.888,1.46254,
613.521,1.46378,
614.155,1.46357,
614.789,1.46469,
615.423,1.46448,
616.056,1.46622,
616.69,1.468,
617.324,1.46841,
617.958,1.46889,
618.591,1.46879,
619.225,1.46811,
619.859,1.46857,
620.492,1.46832,
621.126,1.46906,
621.76,1.46928,
622.3937,1.46982,
623.027,1.47003,
623.661,1.4703,
624.295,1.47031,
624.929,1.47003,
625.5624,1.47065,
626.196,1.46914,
626.83,1.4705,
627.464,1.46985,
628.097,1.47075,
628.731,1.47038,
629.365,1.47086,
629.999,1.46978,
630.632,1.47158,
631.266,1.47123,
631.9,1.47156,
632.534,1.47137,
633.167,1.47102,
633.801,1.4716,
634.435,1.47155,
635.069,1.47194,
635.702,1.47112,
636.336,1.47193,
636.97,1.47272,
637.603,1.47154,
638.237,1.47315,
638.871,1.47142,
639.5047,1.47321,
640.138,1.47263,
640.772,1.47254,
641.406,1.47317,
642.04,1.47324,
642.673,1.47434,
643.307,1.47454,
643.941,1.47507,
644.575,1.47489,
645.208,1.47553,
645.842,1.47363,
646.476,1.47469,
647.11,1.47386,
647.743,1.47405,
648.377,1.47469,
649.011,1.4756,
649.645,1.4753,
650.2783,1.47466,
650.912,1.47537,
651.546,1.47491,
652.18,1.47545,
652.813,1.47668,
653.447,1.47656,
654.081,1.47704,
654.714,1.4755,
655.348,1.47601,
655.982,1.47471,
656.6157,1.47523,
657.249,1.47492,
657.883,1.47433,
658.517,1.47508,
659.151,1.47404,
659.784,1.475,
660.418,1.47531,
661.052,1.47593,
661.686,1.4758,
662.319,1.47619,
662.953,1.47601,
663.587,1.47597,
664.221,1.47552,
664.854,1.4741,
665.488,1.47512,
666.122,1.47516,
666.756,1.47461,
667.3893,1.47535,
668.023,1.47545,
668.657,1.47549,
669.291,1.47679,
669.924,1.47606,
670.558,1.47718,
671.192,1.47747,
671.825,1.47603,
672.459,1.47744,
673.093,1.47722,
673.727,1.47759,
674.36,1.47772,
674.994,1.47765,
675.628,1.47701,
676.262,1.47771,
676.895,1.47772,
677.529,1.4779,
678.163,1.47792,
678.797,1.47875,
679.43,1.47892,
680.064,1.47923,
680.698,1.4797,
681.3316,1.47928,
681.965,1.48025,
682.599,1.48023,
683.233,1.47998,
683.867,1.48053,
684.5003,1.48121,
685.134,1.48035,
685.768,1.4805,
686.402,1.48092,
687.035,1.48096,
687.669,1.48135,
688.303,1.48145,
688.936,1.48204,
689.57,1.48201,
690.204,1.48211,
690.838,1.48254,
691.471,1.48236,
692.105,1.48283,
692.739,1.48301,
693.373,1.48237,
694.006,1.48141,
694.64,1.48219,
695.274,1.48284,
695.908,1.48272,
696.541,1.48233,
697.175,1.48218,
697.809,1.48256,
698.4426,1.48187,
699.076,1.48204,
699.71,1.4829,
700.344,1.48222,
700.978,1.48352,
701.6113,1.48254,
702.245,1.4834,
702.879,1.48368,
703.513,1.48448,
704.146,1.48497,
704.78,1.485,
705.414,1.48509,
706.047,1.48513,
706.681,1.48451,
707.315,1.48506,
707.949,1.48516,
708.582,1.48612,
709.216,1.48518,
709.85,1.48563,
710.484,1.48485,
711.117,1.48474,
711.751,1.48447,
712.385,1.48432,
713.019,1.48698,
713.652,1.48643,
714.286,1.48814,
714.92,1.48659,
715.5536,1.4882,
716.187,1.48831,
716.821,1.48937,
717.455,1.48864,
718.089,1.48921,
718.7223,1.48963,
719.356,1.49033,
719.99,1.48997,
720.624,1.48961,
721.257,1.48959,
721.891,1.49057,
722.525,1.49076,
723.158,1.49075,
723.792,1.49108,
724.426,1.49025,
725.06,1.48954,
725.693,1.48914,
726.327,1.4891,
726.961,1.4882,
727.595,1.4874,
728.228,1.48926,
728.862,1.48908,
729.4959,1.48883,
730.13,1.49012,
730.763,1.49068,
731.397,1.48885,
732.031,1.48991,
732.6646,1.48935,
733.298,1.49048,
733.932,1.49118,
734.566,1.49126,
735.2,1.49052,
735.8333,1.49065,
736.467,1.49302,
737.101,1.49229,
737.735,1.49214,
738.368,1.49355,
739.002,1.49218,
739.636,1.49328,
740.269,1.49458,
740.903,1.4944,
741.537,1.49369,
742.171,1.49494,
742.804,1.49561,
743.438,1.49435,
744.072,1.49351,
744.706,1.49317,
745.339,1.49504,
745.973,1.49599,
746.6069,1.49492,
747.241,1.49511,
747.874,1.49485,
748.508,1.4958,
749.142,1.49675,
749.7756,1.4986,
750.409,1.49841,
751.043,1.50055,
751.677,1.49969,
752.311,1.50013,
752.944,1.50056,
753.578,1.50015,
754.212,1.50013,
754.846,1.50129,
755.479,1.50052,
756.113,1.50304,
756.747,1.50257,
757.38,1.50283,
758.014,1.50334,
758.648,1.50423,
759.282,1.50441,
759.915,1.50385,
760.5492,1.50406,
761.183,1.50367,
761.817,1.50393,
762.45,1.50208,
763.084,1.50266,
763.7179,1.50154,
764.352,1.50127,
764.985,1.50115,
765.619,1.5014,
766.253,1.50155,
766.8866,1.50184,
767.52,1.50202,
768.154,1.50105,
768.788,1.50093,
769.422,1.50191,
770.055,1.50244,
770.689,1.50232,
771.323,1.5026,
771.957,1.50334,
772.59,1.50508,
773.224,1.50615,
773.858,1.50487,
774.491,1.50584,
775.125,1.50462,
775.759,1.50687,
776.393,1.50709,
777.026,1.50717,
777.6602,1.50775,
778.294,1.50637,
778.928,1.50785,
779.561,1.50677,
780.195,1.50612,
780.8289,1.50639,
781.463,1.50581,
782.096,1.50645,
782.73,1.50662,
783.364,1.50676,
783.9976,1.50823,
784.631,1.50887,
785.265,1.50857,
785.899,1.50851,
786.533,1.50834,
787.166,1.508,
787.8,1.50863,
788.434,1.50961,
789.068,1.51014,
789.701,1.51073,
790.335,1.51191,
790.969,1.5113,
791.602,1.51206,
792.236,1.51132,
792.87,1.51197,
793.504,1.5134,
794.137,1.51201,
794.7712,1.51348,
795.405,1.51534,
796.039,1.51576,
796.672,1.51664,
797.306,1.51592,
797.9399,1.51672,
798.574,1.5165,
799.207,1.51736,
799.841,1.51501,
800.475,1.51571,
801.109,1.51588,
801.742,1.51645,
802.376,1.51666,
803.01,1.51595,
803.644,1.51624,
804.277,1.51714,
804.911,1.51606,
805.545,1.51592,
806.179,1.5157,
806.812,1.51573,
807.446,1.51513,
808.08,1.51541,
808.7135,1.51473,
809.347,1.51578,
809.981,1.51594,
810.615,1.51485,
811.248,1.51546,
811.8822,1.51571,
812.516,1.51523,
813.15,1.51499,
813.783,1.51561,
814.417,1.51587,
815.0509,1.51651,
815.685,1.51453,
816.318,1.51564,
816.952,1.51651,
817.586,1.51618,
818.22,1.51657,
818.853,1.51579,
819.487,1.5172,
820.121,1.51707,
820.755,1.51803,
821.388,1.5185,
822.022,1.51878,
822.656,1.51951,
823.29,1.52042,
823.923,1.52076,
824.557,1.51969,
825.191,1.52107,
825.8245,1.52217,
826.458,1.52178,
827.092,1.5223,
827.726,1.52196,
828.359,1.52197,
828.9932,1.52269,
829.627,1.52244,
830.261,1.52232,
830.894,1.52251,
831.528,1.52434,
832.162,1.52332,
832.796,1.52428,
833.429,1.52439,
834.063,1.52544,
834.697,1.52564,
835.331,1.52586,
835.964,1.52648,
836.598,1.52742,
837.232,1.52732,
837.866,1.52675,
838.499,1.52623,
839.133,1.52596,
839.7668,1.52599,
840.401,1.52685,
841.034,1.52858,
841.668,1.5291,
842.302,1.52857,
842.9355,1.52901,
843.569,1.5289,
844.203,1.52985,
844.837,1.52852,
845.47,1.52852,
846.1042,1.52978,
846.738,1.53,
847.372,1.53057,
848.005,1.53067,
848.639,1.5305,
849.273,1.52967,
849.907,1.53048,
850.54,1.53192,
851.174,1.53142,
851.808,1.53264,
852.442,1.53209,
853.075,1.5312,
853.709,1.53302,
854.343,1.53348,
854.977,1.53404,
855.61,1.53297,
856.244,1.53306,
856.8778,1.53247,
857.512,1.53461,
858.145,1.53448,
858.779,1.53604,
859.413,1.5351,
860.0465,1.5347,
860.68,1.53528,
861.314,1.53354,
861.948,1.53399,
862.581,1.5355,
863.2152,1.5351,
863.849,1.53387,
864.483,1.53456,
865.116,1.53559,
865.75,1.53532,
866.384,1.53487,
867.018,1.535,
867.651,1.53356,
868.285,1.5341,
868.919,1.53377,
869.553,1.53377,
870.186,1.53349,
870.82,1.5344,
871.454,1.53587,
872.088,1.53579,
872.721,1.53673,
873.355,1.53551,
873.9888,1.53531,
874.623,1.53737,
875.256,1.53646,
875.89,1.53721,
876.524,1.53787,
877.1575,1.53905,
877.791,1.53814,
878.425,1.53915,
879.059,1.53953,
879.692,1.54124,
880.326,1.54097,
880.96,1.54146,
881.594,1.54143,
882.227,1.54276,
882.861,1.54231,
883.495,1.54224,
884.129,1.54181,
884.762,1.54297,
885.396,1.54205,
886.03,1.54308,
886.664,1.54171,
887.297,1.54207,
887.9311,1.54011,
888.565,1.54211,
889.199,1.5421,
889.832,1.54439,
890.466,1.54262,
891.0998,1.54538,
891.734,1.54534,
892.367,1.54781,
893.001,1.54844,
893.635,1.54835,
894.2685,1.54783,
894.902,1.54847,
895.536,1.54775,
896.17,1.54687,
896.803,1.54773,
897.437,1.54802,
898.071,1.54799,
898.705,1.54837,
899.338,1.54837,
899.972,1.54825,
900.606,1.54915,
901.24,1.55086,
901.873,1.5523,
902.507,1.55199,
903.141,1.55004,
903.775,1.55146,
904.408,1.55232,
905.0421,1.55289,
905.676,1.55264,
906.31,1.55321,
906.943,1.55537,
907.577,1.5552,
908.2108,1.55794,
908.845,1.55796,
909.478,1.55721,
910.112,1.55882,
910.746,1.55918,
911.38,1.55989,
912.013,1.56025,
912.647,1.55824,
913.281,1.55902,
913.914,1.55715,
914.548,1.55855,
915.182,1.55744,
915.816,1.55825,
916.449,1.55669,
917.083,1.55535,
917.717,1.5552,
918.351,1.55483,
918.9844,1.55566,
919.618,1.55371,
920.252,1.55275,
920.886,1.55087,
921.519,1.55112,
922.1531,1.55225,
922.787,1.55151,
923.421,1.55095,
924.054,1.55271,
924.688,1.55509,
925.3218,1.55306,
925.956,1.55293,
926.589,1.55126,
927.223,1.55022,
927.857,1.55107,
928.491,1.55135,
929.124,1.55226,
929.758,1.55055,
930.392,1.5521,
931.025,1.55213,
931.659,1.55125,
932.293,1.55083,
932.927,1.55181,
933.56,1.55205,
934.194,1.55297,
934.828,1.55255,
935.462,1.55072,
936.0954,1.55262,
936.729,1.55225,
937.363,1.55196,
937.997,1.55369,
938.63,1.55303,
939.2641,1.55422,
939.898,1.55394,
940.532,1.5544,
941.165,1.55266,
941.799,1.55269,
942.4328,1.55228,
943.067,1.55172,
943.7,1.55297,
944.334,1.55137,
944.968,1.55056,
945.602,1.55283,
946.235,1.55213,
946.869,1.55296,
947.503,1.55107,
948.136,1.55232,
948.77,1.55172,
949.404,1.55094,
950.038,1.55021,
950.671,1.54998,
951.305,1.55134,
951.939,1.55506,
952.573,1.55524,
953.2064,1.55463,
953.84,1.55471,
954.474,1.55484,
955.108,1.55272,
955.741,1.55324,
956.3751,1.55389,
957.009,1.5533,
957.643,1.55201,
958.276,1.55249,
958.91,1.55221,
959.544,1.55239,
960.178,1.55134,
960.811,1.55228,
961.445,1.55098,
962.079,1.55183,
962.713,1.55175,
963.346,1.55165,
963.98,1.55278,
964.614,1.55461,
965.247,1.55421,
965.881,1.55427,
966.515,1.55455,
967.1487,1.55558,
967.782,1.55334,
968.416,1.55433,
969.05,1.55462,
969.684,1.55509,
970.3174,1.55439,
970.951,1.55364,
971.585,1.55379,
972.219,1.55475,
972.852,1.5519,
973.4861,1.55355,
974.12,1.55168,
974.754,1.55372,
975.387,1.55398,
976.021,1.55304,
976.655,1.55331,
977.289,1.55287,
977.922,1.55176,
978.556,1.5534,
979.19,1.55248,
979.824,1.55145,
980.457,1.55211,
981.091,1.55208,
981.725,1.55351,
982.358,1.55236,
982.992,1.55382,
983.626,1.55423,
984.2597,1.55468,
984.893,1.5549,
985.527,1.55219,
986.161,1.55136,
986.795,1.55129,
987.4284,1.55229,
988.062,1.55394,
988.696,1.55604,
989.33,1.55473,
989.963,1.55523,
990.597,1.55432,
991.231,1.5551,
991.865,1.5562,
992.498,1.55774,
993.132,1.55841,
993.766,1.55669,
994.4,1.55638,
995.033,1.55667,
995.667,1.55642,
996.301,1.55567,
996.935,1.55544,
997.568,1.55468,
998.202,1.55748,
998.836,1.55752,
999.469,1.556,
1000.1,1.55615,
1000.74,1.55262,
1001.37,1.55374,
1002,1.55404,
1002.64,1.55207,
1003.27,1.55186,
1003.91,1.55305,
1004.54,1.55151,
1005.17,1.55068,
1005.81,1.5535,
1006.44,1.5519,
1007.07,1.5509,
1007.71,1.55101,
1008.34,1.55018,
1008.98,1.55021,
1009.61,1.54964,
1010.24,1.54898,
1010.88,1.54904,
1011.51,1.54861,
1012.14,1.54824,
1012.78,1.54537,
1013.41,1.54466,
1014.05,1.54512,
1014.68,1.54512,
1015.313,1.54476,
1015.95,1.54675,
1016.58,1.54526,
1017.21,1.54579,
1017.85,1.54466,
1018.48,1.54226,
1019.12,1.54111,
1019.75,1.54473,
1020.38,1.54485,
1021.02,1.54808,
1021.65,1.54617,
1022.28,1.54437,
1022.92,1.54504,
1023.55,1.54417,
1024.19,1.54228,
1024.82,1.54253,
1025.45,1.54129,
1026.09,1.54131,
1026.72,1.5408,
1027.35,1.53882,
1027.99,1.5381,
1028.62,1.53908,
1029.26,1.54017,
1029.89,1.53822,
1030.52,1.53831,
1031.16,1.53728,
1031.79,1.53363,
1032.424,1.53372,
1033.06,1.5358,
1033.69,1.53432,
1034.33,1.53483,
1034.96,1.53457,
1035.59,1.53578,
1036.23,1.53648,
1036.86,1.53673,
1037.49,1.53595,
1038.13,1.53618,
1038.76,1.5355,
1039.4,1.53526,
1040.03,1.53737,
1040.66,1.53787,
1041.3,1.53902,
1041.93,1.53867,
1042.56,1.53818,
1043.2,1.53915,
1043.83,1.53934,
1044.47,1.53522,
1045.1,1.53446,
1045.73,1.53677,
1046.37,1.53801,
1047,1.53775,
1047.63,1.53823,
1048.27,1.54159,
1048.9,1.53991,
1049.535,1.54122,
1050.17,1.53959,
1050.8,1.53845,
1051.44,1.53701,
1052.07,1.53916,
1052.7,1.53833,
1053.34,1.53834,
1053.97,1.5379,
1054.6,1.53671,
1055.24,1.53722,
1055.87,1.53624,
1056.51,1.53723,
1057.14,1.53496,
1057.77,1.53527,
1058.41,1.5369,
1059.04,1.5372,
1059.67,1.53928,
1060.31,1.5334,
1060.94,1.53367,
1061.58,1.53293,
1062.21,1.53111,
1062.84,1.53215,
1063.48,1.53324,
1064.11,1.5344,
1064.74,1.5335,
1065.38,1.53315,
1066.01,1.53328,
1066.646,1.53356,
1067.28,1.53253,
1067.91,1.53253,
1068.55,1.53366,
1069.18,1.53362,
1069.81,1.53408,
1070.45,1.53255,
1071.08,1.53146,
1071.72,1.52954,
1072.35,1.53151,
1072.98,1.5323,
1073.62,1.53114,
1074.25,1.53005,
1074.88,1.53143,
1075.52,1.53048,
1076.15,1.52963,
1076.79,1.52815,
1077.42,1.52761,
1078.05,1.52902,
1078.69,1.52965,
1079.32,1.52674,
1079.95,1.52504,
1080.59,1.52365,
1081.22,1.5235,
1081.86,1.52453,
1082.49,1.52396,
1083.12,1.5251,
1083.757,1.52259,
1084.39,1.52217,
1085.02,1.52127,
1085.66,1.52205,
1086.29,1.52087,
1086.93,1.51894,
1087.56,1.52102,
1088.19,1.52146,
1088.83,1.52142,
1089.46,1.52372,
1090.09,1.52327,
1090.73,1.52189,
1091.36,1.521,
1092,1.52416,
1092.63,1.52483,
1093.26,1.52748,
1093.9,1.52631,
1094.53,1.52606,
1095.16,1.52733,
1095.8,1.52253,
1096.43,1.52237,
1097.07,1.52262,
1097.7,1.5253,
1098.33,1.5249,
1098.97,1.52324,
1099.6,1.52172,
1100,1.52224,