File: data/LQG_putty/graphite-putty samples/Specific Heat/Graphite/sample3.csv
#EXPORTTYPE:                 ,DATA COMPARE                 ,
#FILE:                       ,sample3.ngb-ds3              ,
#FORMAT:                     ,NETZSCH5                     ,
#FTYPE:                      ,ANSI                         ,
#IDENTITY:                   ,graphite                     ,
#DECIMAL:                    ,POINT                        ,
#SEPARATOR:                  ,COMMA                        ,
#MTYPE:                      ,CP                           ,
#INSTRUMENT:                 ,NETZSCH STA 449F3            ,
#PROJECT:                    ,Gen3CSP                      ,
#DATE/TIME:                  ,12/12/2022 3:10:24 PM (UTC-5),
#CORR. FILE:                 ,baseline2.ngb-bs3            ,
#TEMPCAL:                    ,TCALZERO.TCX                 ,
#SENSITIVITY:                ,SENSZERO.EXX                 ,
#LABORATORY:                 ,STEEL                        ,
#OPERATOR:                   ,MJA                          ,
#REMARK:                     ,                             ,
#SAMPLE:                     ,sample3                      ,
#SAMPLE MASS /mg:            ,33.9,
#MATERIAL:                   ,                             ,
#REFERENCE:                  ,                             ,
#REFERENCE MASS /mg:         ,0,
#TYPE OF CRUCIBLE:           ,PtRh20 85 �l, with lid
#SAMPLE CRUCIBLE MASS /mg:   ,0,
#REFERENCE CRUCIBLE MASS /mg:,0,
#DSC RANGE /�V:              ,5000,
#TG RANGE /mg:               ,35000,
#TAU-R:                      ,---                          ,
#CORR. CODE:                 ,0,
#EXO:                        ,-1,
#RANGE:                      ,100�C/15.0(K/min)/1180�C     ,
#SEGMENT:                    ,S5/7                         ,
#SEG. 5:                     ,100�C/15.0(K/min)/1180�C     ,
,,
##Temp./C,Cp(5)/(J/(g*K)),
138.118,-1.06831,
138.772,-1.17643,
139.425,-1.27365,
140.079,-1.36672,
140.732,-1.45424,
141.386,-1.53549,
142.039,-1.61369,
142.693,-1.68865,
143.346,-1.75591,
143.9999,-1.82148,
144.653,-1.88513,
145.307,-1.94354,
145.961,-1.99862,
146.614,-2.05216,
147.268,-2.10159,
147.921,-2.14887,
148.575,-2.19503,
149.228,-2.23841,
149.882,-2.27875,
150.535,-2.31477,
151.1889,-2.35067,
151.842,-2.38434,
152.496,-2.41436,
153.15,-2.44341,
153.803,-2.46734,
154.457,-2.49439,
155.11,-2.51841,
155.764,-2.53737,
156.417,-2.55983,
157.071,-2.57745,
157.724,-2.59334,
158.3779,-2.60798,
159.031,-2.62176,
159.685,-2.62999,
160.339,-2.63703,
160.992,-3.15491,
161.646,1.23057,
162.299,1.19746,
162.953,1.19576,
163.606,1.19423,
164.2598,1.19230,
164.913,1.18960,
165.567,1.18844,
166.22,1.18688,
166.874,1.18483,
167.528,1.18392,
168.181,1.18175,
168.835,1.18100,
169.488,1.17896,
170.142,1.17797,
170.795,1.17589,
171.4488,1.17442,
172.102,1.17335,
172.756,1.17186,
173.409,1.17007,
174.063,1.16864,
174.717,1.16798,
175.37,1.16714,
176.024,1.16531,
176.677,1.16345,
177.331,1.16245,
177.984,1.16036,
178.6378,1.15951,
179.291,1.15759,
179.945,1.15621,
180.598,1.15525,
181.252,1.15412,
181.906,1.15261,
182.559,1.15146,
183.213,1.15089,
183.866,1.15027,
184.52,1.14931,
185.173,1.14839,
185.8268,1.14707,
186.48,1.14596,
187.134,1.14533,
187.787,1.14459,
188.441,1.14340,
189.095,1.14312,
189.748,1.14181,
190.402,1.14148,
191.055,1.14084,
191.7087,1.14022,
192.362,1.14030,
193.016,1.14005,
193.669,1.13995,
194.323,1.14022,
194.976,1.14029,
195.63,1.14059,
196.284,1.14142,
196.937,1.14270,
197.591,1.14336,
198.244,1.14495,
198.8977,1.14668,
199.551,1.14828,
200.205,1.14948,
200.858,1.15201,
201.512,1.15353,
202.165,1.15554,
202.819,1.15849,
203.473,1.16226,
204.126,1.16530,
204.78,1.16740,
205.433,1.17160,
206.0867,1.17371,
206.74,1.17785,
207.394,1.18151,
208.047,1.18614,
208.701,1.18945,
209.354,1.19384,
210.008,1.19816,
210.662,1.20178,
211.315,1.20584,
211.9686,1.20871,
212.622,1.21299,
213.276,1.21641,
213.929,1.22111,
214.583,1.22472,
215.236,1.22800,
215.89,1.23162,
216.543,1.23440,
217.197,1.23688,
217.851,1.24050,
218.504,1.24310,
219.1576,1.24499,
219.811,1.24894,
220.465,1.25121,
221.118,1.25311,
221.772,1.25519,
222.425,1.25690,
223.079,1.25948,
223.732,1.26115,
224.386,1.26315,
225.04,1.26558,
225.693,1.26763,
226.3466,1.26871,
227,1.27153,
227.654,1.27186,
228.307,1.27414,
228.961,1.27518,
229.614,1.27706,
230.268,1.27708,
230.921,1.27942,
231.575,1.27983,
232.229,1.28127,
232.882,1.28262,
233.5356,1.28321,
234.189,1.28447,
234.843,1.28531,
235.496,1.28579,
236.15,1.28805,
236.803,1.28799,
237.457,1.28961,
238.11,1.29028,
238.764,1.29085,
239.4175,1.29240,
240.071,1.29307,
240.725,1.29319,
241.378,1.29433,
242.032,1.29576,
242.685,1.29589,
243.339,1.29622,
243.992,1.29781,
244.646,1.29863,
245.299,1.29982,
245.953,1.30022,
246.6065,1.29980,
247.26,1.30239,
247.914,1.30340,
248.567,1.30438,
249.221,1.30467,
249.874,1.30618,
250.528,1.30627,
251.181,1.30676,
251.835,1.30840,
252.488,1.30924,
253.142,1.30964,
253.7955,1.31082,
254.449,1.31204,
255.103,1.31305,
255.756,1.31329,
256.41,1.31471,
257.063,1.31480,
257.717,1.31627,
258.37,1.31731,
259.024,1.31795,
259.6774,1.32004,
260.331,1.32014,
260.984,1.32218,
261.638,1.32345,
262.292,1.32321,
262.945,1.32581,
263.599,1.32536,
264.252,1.32673,
264.906,1.32912,
265.559,1.32904,
266.213,1.33131,
266.8664,1.33155,
267.52,1.33199,
268.173,1.33502,
268.827,1.33478,
269.481,1.33750,
270.134,1.33909,
270.788,1.33937,
271.441,1.34203,
272.095,1.34241,
272.748,1.34434,
273.402,1.34605,
274.0554,1.34651,
274.709,1.34776,
275.362,1.34890,
276.016,1.35024,
276.67,1.35109,
277.323,1.35332,
277.977,1.35412,
278.63,1.35464,
279.284,1.35603,
279.9373,1.35797,
280.591,1.35771,
281.2444,1.36022,
281.898,1.36133,
282.551,1.36236,
283.205,1.36442,
283.859,1.36550,
284.512,1.36678,
285.166,1.36828,
285.819,1.36887,
286.473,1.36972,
287.1263,1.37084,
287.78,1.37209,
288.433,1.37222,
289.087,1.37367,
289.74,1.37303,
290.394,1.37514,
291.048,1.37565,
291.701,1.37715,
292.355,1.37711,
293.008,1.37917,
293.662,1.38014,
294.3153,1.38057,
294.969,1.38272,
295.622,1.38322,
296.276,1.38499,
296.929,1.38548,
297.583,1.38617,
298.237,1.38703,
298.89,1.38807,
299.544,1.38820,
300.197,1.38876,
300.851,1.39110,
301.5043,1.39087,
302.158,1.39220,
302.811,1.39218,
303.465,1.39365,
304.118,1.39525,
304.772,1.39528,
305.426,1.39624,
306.079,1.39692,
306.733,1.39893,
307.3862,1.39975,
308.04,1.40111,
308.693,1.40274,
309.347,1.40285,
310,1.40506,
310.654,1.40566,
311.307,1.40627,
311.961,1.40843,
312.615,1.40843,
313.268,1.40969,
313.922,1.41023,
314.5752,1.41175,
315.229,1.41181,
315.882,1.41346,
316.536,1.41502,
317.189,1.41654,
317.843,1.41731,
318.496,1.41864,
319.15,1.41970,
319.804,1.42052,
320.457,1.42219,
321.111,1.42380,
321.7642,1.42531,
322.418,1.42689,
323.071,1.42716,
323.725,1.42768,
324.378,1.43015,
325.032,1.43103,
325.685,1.43153,
326.339,1.43251,
326.993,1.43417,
327.6461,1.43644,
328.3,1.43647,
328.953,1.43866,
329.607,1.44096,
330.26,1.44157,
330.914,1.44177,
331.567,1.44352,
332.221,1.44460,
332.874,1.44502,
333.528,1.44629,
334.182,1.44797,
334.8351,1.44981,
335.489,1.44896,
336.142,1.45033,
336.796,1.45145,
337.449,1.45144,
338.103,1.45327,
338.756,1.45307,
339.41,1.45410,
340.063,1.45453,
340.717,1.45364,
341.371,1.45460,
342.0241,1.45481,
342.678,1.45529,
343.331,1.45630,
343.985,1.45567,
344.638,1.45476,
345.292,1.45504,
345.945,1.45646,
346.599,1.45583,
347.252,1.45657,
347.906,1.45642,
348.56,1.45691,
349.2131,1.45715,
349.867,1.45783,
350.52,1.45741,
351.174,1.45839,
351.827,1.45869,
352.481,1.45857,
353.134,1.45966,
353.788,1.46046,
354.441,1.46024,
355.095,1.46059,
355.749,1.46165,
356.402,1.46311,
357.056,1.46253,
357.709,1.46387,
358.363,1.46540,
359.016,1.46484,
359.67,1.46733,
360.323,1.46696,
360.977,1.46889,
361.63,1.46988,
362.284,1.47165,
362.938,1.47153,
363.591,1.47234,
364.245,1.47342,
364.898,1.47519,
365.552,1.47600,
366.205,1.47766,
366.859,1.47901,
367.512,1.48072,
368.166,1.48205,
368.819,1.48250,
369.473,1.48322,
370.127,1.48381,
370.78,1.48641,
371.434,1.48674,
372.087,1.48787,
372.741,1.48933,
373.394,1.49027,
374.048,1.49290,
374.701,1.49237,
375.3549,1.49243,
376.008,1.49405,
376.662,1.49519,
377.316,1.49571,
377.969,1.49826,
378.623,1.49950,
379.276,1.49943,
379.93,1.50063,
380.583,1.50064,
381.237,1.50172,
381.89,1.50282,
382.5439,1.50327,
383.197,1.50405,
383.851,1.50516,
384.505,1.50676,
385.158,1.50724,
385.812,1.50879,
386.465,1.50814,
387.119,1.50865,
387.772,1.51014,
388.426,1.51050,
389.079,1.51113,
389.7329,1.51175,
390.386,1.51161,
391.04,1.51219,
391.694,1.51333,
392.347,1.51517,
393.001,1.51577,
393.654,1.51594,
394.308,1.51634,
394.961,1.51614,
395.615,1.51774,
396.268,1.51825,
396.9219,1.51930,
397.575,1.51960,
398.229,1.51898,
398.883,1.51976,
399.536,1.52050,
400.19,1.52119,
400.843,1.52122,
401.497,1.52244,
402.15,1.52294,
402.8038,1.52339,
403.457,1.52446,
404.111,1.52562,
404.764,1.52613,
405.418,1.52730,
406.072,1.52738,
406.725,1.52737,
407.379,1.52892,
408.032,1.52898,
408.686,1.53006,
409.339,1.53024,
409.9928,1.53194,
410.646,1.53331,
411.3,1.53371,
411.953,1.53534,
412.607,1.53568,
413.261,1.53715,
413.914,1.53848,
414.568,1.53874,
415.221,1.54031,
415.875,1.54088,
416.528,1.54098,
417.1818,1.54231,
417.835,1.54213,
418.489,1.54250,
419.142,1.54294,
419.796,1.54402,
420.45,1.54421,
421.103,1.54508,
421.757,1.54598,
422.41,1.54562,
423.0637,1.54549,
423.717,1.54582,
424.371,1.54543,
425.024,1.54656,
425.678,1.54673,
426.331,1.54637,
426.985,1.54730,
427.639,1.54713,
428.292,1.54810,
428.946,1.54902,
429.599,1.55035,
430.2527,1.55038,
430.906,1.55051,
431.56,1.55173,
432.213,1.55092,
432.867,1.55197,
433.52,1.55145,
434.174,1.55186,
434.828,1.55236,
435.481,1.55323,
436.135,1.55338,
436.788,1.55473,
437.4417,1.55521,
438.095,1.55533,
438.749,1.55576,
439.402,1.55740,
440.056,1.55730,
440.709,1.55801,
441.363,1.55960,
442.017,1.55955,
442.67,1.55971,
443.3236,1.56021,
443.977,1.55962,
444.6307,1.56080,
445.284,1.56173,
445.938,1.56198,
446.591,1.56215,
447.245,1.56281,
447.898,1.56273,
448.552,1.56273,
449.206,1.56264,
449.859,1.56342,
450.5126,1.56346,
451.166,1.56255,
451.82,1.56522,
452.473,1.56345,
453.127,1.56423,
453.78,1.56670,
454.434,1.56774,
455.087,1.56753,
455.741,1.56880,
456.395,1.56911,
457.048,1.56896,
457.7016,1.56961,
458.355,1.56950,
459.009,1.57175,
459.662,1.57214,
460.316,1.57172,
460.969,1.57233,
461.623,1.57299,
462.276,1.57330,
462.93,1.57310,
463.584,1.57336,
464.237,1.57505,
464.8906,1.57661,
465.544,1.57698,
466.198,1.57771,
466.851,1.57761,
467.505,1.57587,
468.158,1.57930,
468.812,1.57892,
469.465,1.57829,
470.119,1.57895,
470.7725,1.57838,
471.426,1.57933,
472.08,1.57891,
472.733,1.57835,
473.387,1.57995,
474.04,1.57949,
474.694,1.57938,
475.347,1.57931,
476.001,1.57803,
476.654,1.58114,
477.308,1.57892,
477.9615,1.58125,
478.615,1.58125,
479.269,1.57868,
479.922,1.58004,
480.576,1.57840,
481.229,1.57969,
481.883,1.57986,
482.536,1.57797,
483.19,1.57726,
483.843,1.57775,
484.497,1.57667,
485.1505,1.57582,
485.804,1.57637,
486.458,1.57550,
487.111,1.57626,
487.765,1.57570,
488.418,1.57543,
489.072,1.57488,
489.725,1.57535,
490.379,1.57388,
491.0324,1.57464,
491.686,1.57320,
492.339,1.57443,
492.993,1.57248,
493.647,1.57185,
494.3,1.57236,
494.954,1.57010,
495.607,1.57020,
496.261,1.56879,
496.914,1.56934,
497.568,1.57034,
498.2214,1.56808,
498.875,1.56801,
499.528,1.56725,
500.182,1.56749,
500.836,1.56759,
501.489,1.56664,
502.143,1.56556,
502.796,1.56642,
503.45,1.56438,
504.103,1.56517,
504.757,1.56474,
505.4104,1.56578,
506.064,1.56444,
506.717,1.56471,
507.371,1.56424,
508.025,1.56583,
508.678,1.56604,
509.332,1.56442,
509.985,1.56526,
510.639,1.56561,
511.292,1.56660,
511.946,1.56478,
512.5994,1.56631,
513.253,1.56661,
513.906,1.56641,
514.56,1.56719,
515.214,1.56778,
515.867,1.56701,
516.521,1.56691,
517.174,1.56674,
517.828,1.56742,
518.4813,1.56577,
519.135,1.56614,
519.788,1.56496,
520.442,1.56439,
521.095,1.56470,
521.749,1.56509,
522.403,1.56448,
523.056,1.56445,
523.71,1.56341,
524.363,1.56445,
525.017,1.56318,
525.6703,1.56198,
526.324,1.56089,
526.977,1.55838,
527.631,1.55753,
528.284,1.55693,
528.938,1.55725,
529.592,1.55590,
530.245,1.55467,
530.899,1.55460,
531.552,1.55444,
532.206,1.55287,
532.8593,1.55261,
533.513,1.55240,
534.166,1.55222,
534.82,1.55077,
535.473,1.54992,
536.127,1.55019,
536.781,1.54969,
537.434,1.54801,
538.088,1.54921,
538.7412,1.54813,
539.395,1.54850,
540.048,1.54792,
540.702,1.54706,
541.355,1.54867,
542.009,1.54701,
542.662,1.54534,
543.316,1.54563,
543.97,1.54551,
544.623,1.54330,
545.277,1.54369,
545.9302,1.54362,
546.584,1.54369,
547.237,1.54409,
547.891,1.54292,
548.544,1.54387,
549.198,1.54248,
549.851,1.54370,
550.505,1.54163,
551.159,1.54228,
551.812,1.54282,
552.466,1.54308,
553.1192,1.54424,
553.773,1.54304,
554.426,1.54306,
555.08,1.54378,
555.733,1.54211,
556.387,1.54305,
557.04,1.54256,
557.694,1.54108,
558.348,1.54169,
559.001,1.54141,
559.655,1.54073,
560.3082,1.53899,
560.962,1.54008,
561.615,1.53904,
562.269,1.53883,
562.922,1.53890,
563.576,1.53770,
564.229,1.53594,
564.883,1.53687,
565.537,1.53591,
566.1901,1.53535,
566.844,1.53462,
567.497,1.53281,
568.151,1.53195,
568.804,1.53155,
569.458,1.53127,
570.111,1.53047,
570.765,1.52959,
571.418,1.52985,
572.072,1.52748,
572.726,1.52664,
573.3791,1.52765,
574.033,1.52690,
574.686,1.52578,
575.34,1.52397,
575.993,1.52404,
576.647,1.52330,
577.3,1.52148,
577.954,1.52184,
578.607,1.52099,
579.261,1.52009,
579.915,1.52081,
580.5681,1.51913,
581.222,1.51872,
581.875,1.51901,
582.529,1.51934,
583.182,1.51919,
583.836,1.51793,
584.489,1.51911,
585.143,1.51633,
585.796,1.51779,
586.45,1.51625,
587.104,1.51625,
587.757,1.51721,
588.411,1.51820,
589.064,1.51856,
589.718,1.51688,
590.371,1.51664,
591.025,1.51801,
591.678,1.51910,
592.332,1.51707,
592.985,1.51787,
593.639,1.51714,
594.293,1.51715,
594.946,1.51909,
595.6,1.51774,
596.253,1.51619,
596.907,1.51779,
597.56,1.51738,
598.214,1.51661,
598.867,1.51686,
599.521,1.51631,
600.174,1.51709,
600.828,1.51578,
601.482,1.51452,
602.135,1.51537,
602.789,1.51489,
603.442,1.51478,
604.096,1.51609,
604.749,1.51389,
605.403,1.51371,
606.056,1.51368,
606.7099,1.51411,
607.363,1.51315,
608.017,1.51348,
608.671,1.51215,
609.324,1.51129,
609.978,1.51238,
610.631,1.51160,
611.285,1.51275,
611.938,1.51313,
612.592,1.51227,
613.245,1.51246,
613.8989,1.51139,
614.552,1.51293,
615.206,1.51217,
615.86,1.51143,
616.513,1.51257,
617.167,1.51257,
617.82,1.51318,
618.474,1.51327,
619.127,1.51396,
619.781,1.51393,
620.434,1.51215,
621.0879,1.51300,
621.741,1.51274,
622.395,1.51103,
623.049,1.51220,
623.702,1.51124,
624.356,1.51248,
625.009,1.51303,
625.663,1.51326,
626.316,1.51220,
626.97,1.51194,
627.623,1.51243,
628.2769,1.51338,
628.93,1.51521,
629.584,1.51546,
630.238,1.51402,
630.891,1.51589,
631.545,1.51461,
632.198,1.51382,
632.852,1.51614,
633.505,1.51577,
634.1588,1.51572,
634.812,1.51611,
635.466,1.51705,
636.119,1.51368,
636.773,1.51577,
637.427,1.51413,
638.08,1.51606,
638.734,1.51567,
639.387,1.51702,
640.041,1.51683,
640.694,1.51593,
641.3478,1.51657,
642.001,1.51746,
642.655,1.51605,
643.308,1.51512,
643.962,1.51477,
644.616,1.51439,
645.269,1.51672,
645.923,1.51648,
646.576,1.51567,
647.23,1.51644,
647.883,1.51634,
648.5368,1.51782,
649.19,1.51823,
649.844,1.51839,
650.497,1.52096,
651.151,1.51996,
651.805,1.51889,
652.458,1.51818,
653.112,1.51874,
653.765,1.51822,
654.4187,1.51681,
655.072,1.51503,
655.726,1.51605,
656.379,1.51648,
657.033,1.51685,
657.686,1.51490,
658.34,1.51402,
658.994,1.51383,
659.647,1.51249,
660.301,1.51339,
660.954,1.51309,
661.6077,1.51296,
662.261,1.51169,
662.915,1.51142,
663.568,1.50973,
664.222,1.51062,
664.875,1.51127,
665.529,1.50825,
666.183,1.50871,
666.836,1.50857,
667.49,1.50670,
668.143,1.50698,
668.7967,1.50546,
669.45,1.50476,
670.104,1.50490,
670.757,1.50380,
671.411,1.50292,
672.064,1.50328,
672.718,1.50422,
673.372,1.50366,
674.025,1.50300,
674.679,1.50359,
675.332,1.50360,
675.9857,1.50270,
676.639,1.50366,
677.293,1.50296,
677.946,1.50385,
678.6,1.50407,
679.253,1.50181,
679.907,1.50460,
680.561,1.50381,
681.214,1.50341,
681.8676,1.50357,
682.521,1.50464,
683.175,1.50421,
683.828,1.50536,
684.482,1.50369,
685.135,1.50708,
685.789,1.50576,
686.442,1.50478,
687.096,1.50613,
687.75,1.50538,
688.403,1.50675,
689.0566,1.50511,
689.71,1.50567,
690.364,1.50670,
691.017,1.50620,
691.671,1.50488,
692.324,1.50436,
692.978,1.50475,
693.631,1.50432,
694.285,1.50473,
694.939,1.50547,
695.592,1.50505,
696.2456,1.50607,
696.899,1.50437,
697.553,1.50521,
698.206,1.50615,
698.86,1.50593,
699.513,1.50403,
700.167,1.50395,
700.82,1.50464,
701.474,1.50310,
702.1275,1.50431,
702.781,1.50407,
703.435,1.50384,
704.088,1.50443,
704.742,1.50176,
705.395,1.50215,
706.049,1.50278,
706.702,1.50220,
707.356,1.50308,
708.009,1.50497,
708.663,1.50404,
709.3165,1.50579,
709.97,1.50653,
710.624,1.50469,
711.277,1.50512,
711.931,1.50612,
712.584,1.50525,
713.238,1.50629,
713.891,1.50690,
714.545,1.50571,
715.198,1.50461,
715.852,1.50548,
716.5055,1.50464,
717.159,1.50554,
717.813,1.50622,
718.466,1.50499,
719.12,1.50506,
719.773,1.50520,
720.427,1.50503,
721.08,1.50471,
721.734,1.50532,
722.387,1.50523,
723.041,1.50208,
723.6945,1.50179,
724.348,1.50350,
725.002,1.50305,
725.655,1.50075,
726.309,1.50152,
726.962,1.50264,
727.616,1.50363,
728.269,1.50172,
728.923,1.50222,
729.5764,1.50249,
730.23,1.50101,
730.883,1.50209,
731.537,1.50084,
732.191,1.50079,
732.844,1.50162,
733.498,1.50234,
734.151,1.50125,
734.805,1.50182,
735.458,1.50073,
736.112,1.50313,
736.7654,1.50085,
737.419,1.50159,
738.072,1.50387,
738.726,1.50175,
739.38,1.50346,
740.033,1.50516,
740.687,1.50198,
741.34,1.50407,
741.994,1.50237,
742.647,1.50278,
743.301,1.50179,
743.9544,1.50217,
744.608,1.50273,
745.261,1.50180,
745.915,1.50263,
746.569,1.50071,
747.222,1.49857,
747.876,1.50117,
748.529,1.50085,
749.183,1.50193,
749.8363,1.49994,
750.49,1.50003,
751.143,1.50208,
751.797,1.49999,
752.45,1.49926,
753.104,1.49959,
753.758,1.50085,
754.411,1.50234,
755.065,1.50099,
755.718,1.50161,
756.372,1.50052,
757.0253,1.49894,
757.679,1.49885,
758.332,1.49881,
758.986,1.49761,
759.639,1.49841,
760.293,1.49845,
760.947,1.49661,
761.6,1.49578,
762.254,1.49580,
762.907,1.49680,
763.561,1.49586,
764.2143,1.49461,
764.868,1.49760,
765.521,1.49527,
766.175,1.49584,
766.828,1.49569,
767.482,1.49360,
768.136,1.49573,
768.789,1.49470,
769.443,1.49557,
770.0962,1.49406,
770.75,1.49399,
771.4033,1.49562,
772.057,1.49468,
772.71,1.49503,
773.364,1.49501,
774.017,1.49634,
774.671,1.49668,
775.325,1.49711,
775.978,1.49900,
776.632,1.49772,
777.2852,1.49753,
777.939,1.49723,
778.592,1.49885,
779.246,1.49776,
779.899,1.49817,
780.553,1.49632,
781.206,1.49580,
781.86,1.49780,
782.514,1.49719,
783.167,1.49632,
783.821,1.49537,
784.4742,1.49672,
785.128,1.49569,
785.781,1.49829,
786.435,1.49477,
787.088,1.49534,
787.742,1.49703,
788.395,1.49688,
789.049,1.49493,
789.703,1.49591,
790.356,1.49557,
791.01,1.49586,
791.6632,1.49591,
792.317,1.49674,
792.97,1.49557,
793.624,1.49608,
794.277,1.49646,
794.931,1.49582,
795.584,1.49450,
796.238,1.49531,
796.892,1.49656,
797.5451,1.49445,
798.199,1.49432,
798.852,1.49442,
799.506,1.49454,
800.159,1.49038,
800.813,1.49046,
801.466,1.48960,
802.12,1.49236,
802.773,1.49200,
803.427,1.49240,
804.081,1.49226,
804.7341,1.49499,
805.388,1.49241,
806.041,1.49278,
806.695,1.49158,
807.348,1.49160,
808.002,1.49162,
808.655,1.49017,
809.309,1.49057,
809.962,1.48962,
810.616,1.49081,
811.27,1.49041,
811.9231,1.48984,
812.577,1.49079,
813.23,1.49091,
813.884,1.49049,
814.537,1.49026,
815.191,1.48860,
815.844,1.48982,
816.498,1.48784,
817.151,1.49015,
817.805,1.48842,
818.459,1.48873,
819.112,1.49152,
819.766,1.49027,
820.419,1.48957,
821.073,1.49164,
821.726,1.48991,
822.38,1.49120,
823.033,1.49086,
823.687,1.48914,
824.34,1.48973,
824.994,1.49050,
825.648,1.48927,
826.301,1.48832,
826.955,1.49019,
827.608,1.48783,
828.262,1.48788,
828.915,1.48974,
829.569,1.48713,
830.222,1.48919,
830.876,1.49107,
831.529,1.48980,
832.183,1.49098,
832.837,1.48787,
833.49,1.48858,
834.144,1.48753,
834.797,1.48910,
835.451,1.48914,
836.104,1.48687,
836.758,1.48712,
837.411,1.48851,
838.065,1.48851,
838.718,1.48731,
839.372,1.48915,
840.026,1.48861,
840.679,1.48843,
841.333,1.48856,
841.986,1.48767,
842.64,1.48537,
843.293,1.48783,
843.947,1.48828,
844.6,1.48685,
845.2539,1.48583,
845.907,1.48635,
846.561,1.48575,
847.215,1.48436,
847.868,1.48557,
848.522,1.48359,
849.175,1.48234,
849.829,1.48561,
850.482,1.48305,
851.136,1.48117,
851.789,1.48179,
852.4429,1.48403,
853.096,1.48222,
853.75,1.48149,
854.404,1.48327,
855.057,1.48159,
855.711,1.48235,
856.364,1.48267,
857.018,1.47940,
857.671,1.48115,
858.325,1.48023,
858.978,1.47844,
859.6319,1.47883,
860.285,1.47799,
860.939,1.47909,
861.593,1.47806,
862.246,1.47978,
862.9,1.47976,
863.553,1.47709,
864.207,1.47901,
864.86,1.47708,
865.5138,1.47758,
866.167,1.47837,
866.821,1.47905,
867.474,1.47564,
868.128,1.47622,
868.782,1.47366,
869.435,1.47597,
870.089,1.47418,
870.742,1.47233,
871.396,1.47532,
872.049,1.47212,
872.7028,1.47149,
873.356,1.46893,
874.01,1.46803,
874.663,1.46698,
875.317,1.46798,
875.971,1.46727,
876.624,1.46873,
877.278,1.46784,
877.931,1.46535,
878.585,1.46780,
879.238,1.46704,
879.8918,1.46846,
880.545,1.46629,
881.199,1.46781,
881.852,1.46595,
882.506,1.46592,
883.16,1.46400,
883.813,1.46321,
884.467,1.46376,
885.12,1.46395,
885.774,1.46490,
886.427,1.46138,
887.0808,1.46388,
887.734,1.46082,
888.388,1.46082,
889.041,1.46209,
889.695,1.45916,
890.349,1.46071,
891.002,1.45624,
891.656,1.46081,
892.309,1.45985,
892.9627,1.45828,
893.616,1.45640,
894.27,1.45706,
894.923,1.45555,
895.577,1.45499,
896.23,1.45654,
896.884,1.45308,
897.538,1.45402,
898.191,1.45441,
898.845,1.45143,
899.498,1.45317,
900.1517,1.44893,
900.805,1.44867,
901.459,1.44950,
902.112,1.44980,
902.766,1.44946,
903.419,1.44995,
904.073,1.44782,
904.727,1.44880,
905.38,1.45064,
906.034,1.45074,
906.687,1.45261,
907.3407,1.45481,
907.994,1.45771,
908.648,1.45561,
909.301,1.45815,
909.955,1.45734,
910.608,1.45639,
911.262,1.45884,
911.916,1.45617,
912.569,1.45519,
913.2226,1.45651,
913.876,1.45201,
914.53,1.44878,
915.183,1.44709,
915.837,1.44535,
916.49,1.44438,
917.144,1.44409,
917.797,1.44242,
918.451,1.44337,
919.105,1.44120,
919.758,1.43965,
920.4116,1.43888,
921.065,1.43554,
921.719,1.43592,
922.372,1.43196,
923.026,1.42864,
923.679,1.42893,
924.333,1.43217,
924.986,1.42789,
925.64,1.42717,
926.294,1.42967,
926.947,1.42888,
927.6006,1.42812,
928.254,1.42705,
928.908,1.42806,
929.561,1.42374,
930.215,1.42805,
930.868,1.42756,
931.522,1.42650,
932.175,1.42601,
932.829,1.42507,
933.4825,1.42603,
934.136,1.42614,
934.7896,1.42387,
935.443,1.42101,
936.097,1.41858,
936.75,1.41708,
937.404,1.41858,
938.057,1.41769,
938.711,1.41767,
939.364,1.41721,
940.018,1.41657,
940.6715,1.41709,
941.325,1.41563,
941.979,1.41332,
942.632,1.41095,
943.286,1.41104,
943.939,1.40986,
944.593,1.40936,
945.246,1.40870,
945.9,1.40562,
946.553,1.40682,
947.207,1.40525,
947.8605,1.40162,
948.514,1.40357,
949.168,1.39941,
949.821,1.39965,
950.475,1.39514,
951.128,1.39583,
951.782,1.39352,
952.435,1.39110,
953.089,1.39024,
953.742,1.38747,
954.396,1.38881,
955.0495,1.38492,
955.703,1.38515,
956.357,1.38045,
957.01,1.38228,
957.664,1.38013,
958.317,1.38082,
958.971,1.37873,
959.624,1.37697,
960.278,1.37594,
960.9314,1.37150,
961.585,1.37673,
962.238,1.37437,
962.892,1.37695,
963.546,1.38008,
964.199,1.37766,
964.853,1.37689,
965.506,1.37391,
966.16,1.37669,
966.813,1.37816,
967.467,1.37676,
968.1204,1.37767,
968.774,1.37557,
969.427,1.37484,
970.081,1.37603,
970.735,1.37295,
971.388,1.37316,
972.042,1.37097,
972.695,1.36961,
973.349,1.36683,
974.002,1.36871,
974.656,1.36824,
975.3094,1.36842,
975.963,1.36754,
976.616,1.36223,
977.27,1.36170,
977.924,1.36188,
978.577,1.35865,
979.231,1.35818,
979.884,1.35942,
980.538,1.35721,
981.1913,1.35520,
981.845,1.35332,
982.498,1.35304,
983.152,1.35132,
983.805,1.35199,
984.459,1.34962,
985.113,1.35051,
985.766,1.35203,
986.42,1.35157,
987.073,1.35132,
987.727,1.35169,
988.3803,1.35185,
989.034,1.34899,
989.687,1.34927,
990.341,1.35122,
990.994,1.34664,
991.648,1.34838,
992.302,1.34720,
992.955,1.34672,
993.609,1.34329,
994.262,1.34219,
994.916,1.34166,
995.5693,1.34121,
996.223,1.33873,
996.876,1.33670,
997.53,1.33524,
998.183,1.33250,
998.837,1.33068,
999.491,1.32837,
1000.14,1.32627,
1000.8,1.32473,
1001.45,1.32155,
1002.1,1.31916,
1002.76,1.31502,
1003.41,1.31207,
1004.07,1.30750,
1004.72,1.30761,
1005.37,1.30589,
1006.03,1.30561,
1006.68,1.30106,
1007.33,1.30171,
1007.99,1.30024,
1008.64,1.29554,
1009.29,1.29600,
1009.95,1.29098,
1010.6,1.28638,
1011.25,1.28869,
1011.91,1.28548,
1012.56,1.28513,
1013.22,1.28596,
1013.87,1.28109,
1014.52,1.28142,
1015.18,1.28051,
1015.83,1.27653,
1016.48,1.27622,
1017.14,1.27439,
1017.79,1.27356,
1018.44,1.27039,
1019.1,1.26815,
1019.75,1.26900,
1020.4,1.26806,
1021.06,1.26853,
1021.71,1.26790,
1022.36,1.26709,
1023.02,1.26735,
1023.67,1.26397,
1024.33,1.26206,
1024.98,1.25655,
1025.63,1.26048,
1026.29,1.25505,
1026.94,1.25432,
1027.59,1.25278,
1028.25,1.25368,
1028.9,1.25067,
1029.55,1.25069,
1030.21,1.24867,
1030.86,1.24676,
1031.51,1.24330,
1032.17,1.24421,
1032.82,1.24049,
1033.47,1.24213,
1034.13,1.24214,
1034.78,1.24015,
1035.44,1.23812,
1036.09,1.23496,
1036.74,1.23356,
1037.4,1.23306,
1038.05,1.23301,
1038.7,1.23021,
1039.36,1.23041,
1040.01,1.23340,
1040.66,1.23078,
1041.32,1.23021,
1041.97,1.23295,
1042.62,1.23174,
1043.28,1.23049,
1043.93,1.23391,
1044.59,1.22907,
1045.24,1.22876,
1045.89,1.23059,
1046.55,1.23055,
1047.2,1.22747,
1047.85,1.23580,
1048.51,1.22966,
1049.16,1.23036,
1049.81,1.22674,
1050.47,1.22713,
1051.12,1.22986,
1051.77,1.22673,
1052.43,1.22957,
1053.08,1.22280,
1053.73,1.22231,
1054.39,1.22098,
1055.04,1.22559,
1055.7,1.22285,
1056.349,1.21981,
1057,1.22230,
1057.66,1.21905,
1058.31,1.21457,
1058.96,1.21201,
1059.62,1.21171,
1060.27,1.20816,
1060.92,1.21151,
1061.58,1.21124,
1062.23,1.20572,
1062.88,1.20809,
1063.538,1.20956,
1064.19,1.20434,
1064.85,1.20607,
1065.5,1.20607,
1066.15,1.20315,
1066.81,1.20179,
1067.46,1.19866,
1068.11,1.19600,
1068.77,1.19379,
1069.42,1.19044,
1070.07,1.18972,
1070.727,1.19081,
1071.38,1.18841,
1072.03,1.18536,
1072.69,1.17917,
1073.34,1.17371,
1073.99,1.17239,
1074.65,1.16981,
1075.3,1.16663,
1075.96,1.16709,
1076.61,1.16233,
1077.26,1.16070,
1077.92,1.16019,
1078.57,1.15580,
1079.22,1.15344,
1079.88,1.14941,
1080.53,1.14598,
1081.18,1.14439,
1081.84,1.13974,
1082.49,1.13760,
1083.14,1.13170,
1083.8,1.12998,
1084.45,1.12529,
1085.1,1.12202,
1085.76,1.12212,
1086.41,1.11772,
1087.07,1.11253,
1087.72,1.11104,
1088.37,1.10486,
1089.03,1.10260,
1089.68,1.10034,
1090.33,1.09530,
1090.99,1.09471,
1091.64,1.08889,
1092.29,1.08937,
1092.95,1.08633,
1093.6,1.08191,
1094.25,1.07696,
1094.91,1.07444,
1095.56,1.06776,
1096.22,1.07070,
1096.87,1.06358,
1097.52,1.05855,
1098.18,1.05618,
1098.83,1.05384,
1099.48,1.05007,
1100,1.04863,