File: data/LQG_putty/graphite-putty samples/Specific Heat/Putty/sample1.csv
#EXPORTTYPE:                 ,DATA COMPARE
#FILE:                       ,sample1.ngb-ds3
#FORMAT:                     ,NETZSCH5
#FTYPE:                      ,ANSI
#IDENTITY:                   ,putty
#DECIMAL:                    ,POINT
#SEPARATOR:                  ,COMMA
#MTYPE:                      ,CP
#INSTRUMENT:                 ,NETZSCH STA 449F3
#PROJECT:                    ,Gen3CSP
#DATE/TIME:                  ,12/13/2022 3:59:26 PM (UTC-5)
#CORR. FILE:                 ,baseline2.ngb-bs3
#TEMPCAL:                    ,TCALZERO.TCX
#SENSITIVITY:                ,SENSZERO.EXX
#LABORATORY:                 ,STEEL
#OPERATOR:                   ,MJA
#REMARK:                     ,
#SAMPLE:                     ,sample1
#SAMPLE MASS /mg:            ,35.9
#MATERIAL:                   ,
#REFERENCE:                  ,
#REFERENCE MASS /mg:         ,0
#TYPE OF CRUCIBLE:           ,PtRh20 85 �l, with lid
#SAMPLE CRUCIBLE MASS /mg:   ,0
#REFERENCE CRUCIBLE MASS /mg:,0
#DSC RANGE /�V:              ,5000
#TG RANGE /mg:               ,35000
#TAU-R:                      ,---
#CORR. CODE:                 ,00
#EXO:                        ,-1
#RANGE:                      ,25�C/15.0(K/min)/1180�C
#SEGMENT:                    ,S1/7
#SEG. 1:                     ,25�C/15.0(K/min)/1180�C
,,
##Temp./C,Cp(1)/(J/(g*K))
  29.15000,      0.97931
  29.92237,      0.99671
  30.69474,      1.00708
  31.46711,      1.01984
  32.23949,      1.03251
  33.01186,      1.03856
  33.78423,      1.04465
  34.55660,      1.05081
  35.32897,      1.05483
  36.10134,      1.05814
  36.87372,      1.06436
  37.64609,      1.06677
  38.41846,      1.07020
  39.19083,      1.07417
  39.96320,      1.07740
  40.73557,      1.07999
  41.50795,      1.08269
  42.28032,      1.08494
  43.05269,      1.08820
  43.82506,      1.09061
  44.59743,      1.09311
  45.36980,      1.09603
  46.14217,      1.09854
  46.91455,      1.10107
  47.68692,      1.10450
  48.45929,      1.10584
  49.23166,      1.10911
  50.00403,      1.11272
  50.77640,      1.11551
  51.54878,      1.11840
  52.32115,      1.12167
  53.09352,      1.12492
  53.86589,      1.12981
  54.63826,      1.13313
  55.41063,      1.13750
  56.18301,      1.14184
  56.95538,      1.14643
  57.72775,      1.15079
  58.50012,      1.15788
  59.27249,      1.16415
  60.04486,      1.17076
  60.81724,      1.17979
  61.58961,      1.18939
  62.36198,      1.19909
  63.13435,      1.21031
  63.90672,      1.22261
  64.67909,      1.23541
  65.45146,      1.24691
  66.22384,      1.25791
  66.99621,      1.26790
  67.76858,      1.27885
  68.54095,      1.28863
  69.31332,      1.29899
  70.08569,      1.30985
  70.85807,      1.32052
  71.63044,      1.33222
  72.40281,      1.34330
  73.17518,      1.35456
  73.94755,      1.36608
  74.71992,      1.37759
  75.49230,      1.38943
  76.26467,      1.40312
  77.03704,      1.41777
  77.80941,      1.43318
  78.58178,      1.44913
  79.35415,      1.46614
  80.12653,      1.48100
  80.89890,      1.49447
  81.67127,      1.50339
  82.44364,      1.50882
  83.21601,      1.51033
  83.98838,      1.51237
  84.76075,      1.51285
  85.53313,      1.51130
  86.30550,      1.50933
  87.07787,      1.50725
  87.85024,      1.50502
  88.62261,      1.50650
  89.39498,      1.50748
  90.16736,      1.50754
  90.93973,      1.50918
  91.71210,      1.51040
  92.48447,      1.51185
  93.25684,      1.51412
  94.02921,      1.51547
  94.80159,      1.51798
  95.57396,      1.51854
  96.34633,      1.52033
  97.11870,      1.52250
  97.89107,      1.52475
  98.66344,      1.52664
  99.43582,      1.52915
 100.208,      1.53177
 100.981,      1.53286
 101.753,      1.53391
 102.525,      1.53642
 103.298,      1.53752
 104.07,      1.53907
 104.842,      1.54181
 105.615,      1.54304
 106.387,      1.54573
 107.16,      1.54729
 107.932,      1.54937
 108.704,      1.55101
 109.477,      1.55317
 110.249,      1.55422
 111.021,      1.55525
 111.794,      1.55732
 112.566,      1.55811
 113.338,      1.56064
 114.111,      1.56228
 114.883,      1.56218
 115.656,      1.56434
 116.428,      1.56494
 117.2,      1.56578
 117.973,      1.56742
 118.745,      1.56905
 119.517,      1.57013
 120.29,      1.57175
 121.062,      1.57249
 121.835,      1.57334
 122.607,      1.57406
 123.379,      1.57537
 124.152,      1.57683
 124.924,      1.57727
 125.696,      1.57883
 126.469,      1.58099
 127.241,      1.58262
 128.014,      1.58363
 128.786,      1.58412
 129.558,      1.58572
 130.331,      1.58733
 131.103,      1.58893
 131.875,      1.59075
 132.648,      1.59219
 133.42,      1.59410
 134.193,      1.59637
 134.965,      1.59771
 135.737,      1.59930
 136.51,      1.60078
 137.282,      1.60247
 138.054,      1.60391
 138.827,      1.60571
 139.599,      1.60686
 140.372,      1.60795
 141.144,      1.60916
 141.916,      1.61093
 142.689,      1.61193
 143.461,      1.61421
 144.233,      1.61584
 145.006,      1.61670
 145.778,      1.61934
 146.55,      1.62099
 147.323,      1.62175
 148.095,      1.62201
 148.868,      1.62360
 149.64,      1.62626
 150.412,      1.62766
 151.185,      1.62892
 151.957,      1.62987
 152.729,      1.63166
 153.502,      1.63416
 154.274,      1.63538
 155.047,      1.63727
 155.819,      1.63845
 156.591,      1.64076
 157.364,      1.64257
 158.136,      1.64484
 158.908,      1.64594
 159.681,      1.64824
 160.453,      1.64907
 161.226,      1.65018
 161.998,      1.65275
 162.77,      1.65411
 163.543,      1.65604
 164.315,      1.65681
 165.087,      1.65922
 165.86,      1.66094
 166.632,      1.66211
 167.405,      1.66357
 168.177,      1.66617
 168.949,      1.66795
 169.722,      1.66978
 170.494,      1.67126
 171.266,      1.67277
 172.039,      1.67461
 172.811,      1.67558
 173.583,      1.67625
 174.356,      1.67856
 175.128,      1.67857
 175.901,      1.68140
 176.673,      1.68159
 177.445,      1.68320
 178.218,      1.68474
 178.99,      1.68610
 179.762,      1.68650
 180.535,      1.68866
 181.307,      1.68993
 182.08,      1.69053
 182.852,      1.69287
 183.624,      1.69419
 184.397,      1.69602
 185.169,      1.69729
 185.941,      1.69961
 186.714,      1.70036
 187.486,      1.70134
 188.259,      1.70294
 189.031,      1.70391
 189.803,      1.70650
 190.576,      1.70750
 191.348,      1.70884
 192.12,      1.71245
 192.893,      1.71325
 193.665,      1.71590
 194.438,      1.71778
 195.21,      1.71976
 195.982,      1.72206
 196.755,      1.72341
 197.527,      1.72482
 198.299,      1.72623
 199.072,      1.72896
 199.844,      1.73069
 200.616,      1.73315
 201.389,      1.73600
 202.161,      1.73721
 202.934,      1.73886
 203.706,      1.74058
 204.478,      1.74313
 205.251,      1.74529
 206.023,      1.74769
 206.795,      1.75076
 207.568,      1.75200
 208.34,      1.75560
 209.113,      1.75690
 209.885,      1.75940
 210.657,      1.76144
 211.43,      1.76290
 212.202,      1.76522
 212.974,      1.76770
 213.747,      1.77001
 214.519,      1.77259
 215.292,      1.77575
 216.064,      1.77759
 216.836,      1.78141
 217.609,      1.78318
 218.381,      1.78540
 219.153,      1.78804
 219.926,      1.79007
 220.698,      1.79339
 221.471,      1.79567
 222.243,      1.79815
 223.015,      1.80071
 223.788,      1.80225
 224.56,      1.80487
 225.332,      1.80635
 226.105,      1.80956
 226.877,      1.81119
 227.649,      1.81356
 228.422,      1.81635
 229.194,      1.81878
 229.967,      1.82056
 230.739,      1.82242
 231.511,      1.82517
 232.284,      1.82786
 233.056,      1.82870
 233.828,      1.83026
 234.601,      1.83195
 235.373,      1.83307
 236.146,      1.83330
 236.918,      1.83629
 237.69,      1.83660
 238.463,      1.83941
 239.235,      1.83991
 240.007,      1.84040
 240.78,      1.84218
 241.552,      1.84280
 242.325,      1.84377
 243.097,      1.84493
 243.869,      1.84428
 244.642,      1.84558
 245.414,      1.84644
 246.186,      1.84536
 246.959,      1.84703
 247.731,      1.84634
 248.504,      1.84612
 249.276,      1.84540
 250.048,      1.84664
 250.821,      1.84523
 251.593,      1.84483
 252.365,      1.84466
 253.138,      1.84437
 253.91,      1.84516
 254.683,      1.84511
 255.455,      1.84436
 256.227,      1.84391
 257,      1.84403
 257.772,      1.84409
 258.544,      1.84326
 259.317,      1.84291
 260.089,      1.84347
 260.861,      1.84185
 261.634,      1.84121
 262.406,      1.84093
 263.179,      1.83957
 263.951,      1.83998
 264.723,      1.83844
 265.496,      1.83769
 266.268,      1.83735
 267.04,      1.83625
 267.813,      1.83542
 268.585,      1.83473
 269.358,      1.83376
 270.13,      1.83279
 270.902,      1.83079
 271.675,      1.83004
 272.447,      1.82845
 273.219,      1.82712
 273.992,      1.82485
 274.764,      1.82399
 275.537,      1.82178
 276.309,      1.82037
 277.081,      1.81755
 277.854,      1.81595
 278.626,      1.81404
 279.398,      1.81110
 280.171,      1.80833
 280.943,      1.80632
 281.716,      1.80245
 282.488,      1.79939
 283.26,      1.79575
 284.033,      1.79270
 284.805,      1.78829
 285.577,      1.78401
 286.35,      1.78080
 287.122,      1.77570
 287.894,      1.77011
 288.667,      1.76588
 289.439,      1.76075
 290.212,      1.75565
 290.984,      1.75089
 291.756,      1.74486
 292.529,      1.73859
 293.301,      1.73303
 294.073,      1.72682
 294.846,      1.72015
 295.618,      1.71389
 296.391,      1.70674
 297.163,      1.69894
 297.935,      1.69277
 298.708,      1.68464
 299.48,      1.67787
 300.252,      1.66905
 301.025,      1.66066
 301.797,      1.65121
 302.57,      1.64320
 303.342,      1.63345
 304.114,      1.62351
 304.887,      1.61368
 305.659,      1.60265
 306.431,      1.59144
 307.204,      1.58120
 307.976,      1.56912
 308.749,      1.55828
 309.521,      1.54623
 310.293,      1.53296
 311.066,      1.52195
 311.838,      1.50886
 312.61,      1.49505
 313.383,      1.48249
 314.155,      1.46759
 314.927,      1.45400
 315.7,      1.44020
 316.472,      1.42541
 317.245,      1.41089
 318.017,      1.39637
 318.789,      1.38041
 319.562,      1.36664
 320.334,      1.36085
 321.106,      1.36256
 321.879,      1.36462
 322.651,      1.37910
 323.424,      1.38782
 324.196,      1.39063
 324.968,      1.39064
 325.741,      1.38607
 326.513,      1.38798
 327.285,      1.39740
 328.058,      1.39725
 328.83,      1.39408
 329.603,      1.41884
 330.375,      1.44983
 331.147,      1.46932
 331.92,      1.47229
 332.692,      1.46277
 333.464,      1.45042
 334.237,      1.44491
 335.009,      1.43060
 335.782,      1.41611
 336.554,      1.40558
 337.326,      1.39492
 338.099,      1.38778
 338.871,      1.37615
 339.643,      1.36493
 340.416,      1.35794
 341.188,      1.34962
 341.961,      1.34103
 342.733,      1.33713
 343.505,      1.32974
 344.278,      1.31803
 345.05,      1.30447
 345.822,      1.29040
 346.595,      1.27556
 347.367,      1.26409
 348.139,      1.25118
 348.912,      1.23738
 349.684,      1.23203
 350.457,      1.22590
 351.229,      1.21913
 352.001,      1.21084
 352.774,      1.20307
 353.546,      1.19708
 354.318,      1.18961
 355.091,      1.18065
 355.863,      1.18298
 356.636,      1.18119
 357.408,      1.17993
 358.18,      1.17994
 358.953,      1.17939
 359.725,      1.18259
 360.497,      1.18695
 361.27,      1.19352
 362.042,      1.20288
 362.815,      1.21505
 363.587,      1.22669
 364.359,      1.24163
 365.132,      1.25612
 365.904,      1.27151
 366.676,      1.28683
 367.449,      1.30478
 368.221,      1.32125
 368.993,      1.33728
 369.766,      1.35234
 370.538,      1.36964
 371.311,      1.38326
 372.083,      1.39837
 372.855,      1.41098
 373.628,      1.42325
 374.4,      1.43443
 375.172,      1.44435
 375.945,      1.45211
 376.717,      1.45980
 377.49,      1.46403
 378.262,      1.46869
 379.034,      1.46850
 379.807,      1.46704
 380.579,      1.46275
 381.351,      1.45500
 382.124,      1.44512
 382.896,      1.43185
 383.669,      1.41747
 384.441,      1.40117
 385.213,      1.38512
 385.986,      1.36582
 386.758,      1.34617
 387.53,      1.32561
 388.303,      1.30289
 389.075,      1.27907
 389.848,      1.25387
 390.62,      1.22566
 391.392,      1.19527
 392.165,      1.16608
 392.937,      1.13490
 393.709,      1.10409
 394.482,      1.06962
 395.254,      1.03381
 396.027,      0.99790
 396.799,      0.96036
 397.571,      0.92277
 398.344,      0.88260
 399.116,      0.84179
 399.888,      0.80029
 400.661,      0.76041
 401.433,      0.71878
 402.205,      0.66871
 402.978,      0.64705
 403.75,      0.61268
 404.523,      0.56893
 405.295,      0.51689
 406.067,      0.46422
 406.84,      0.41931
 407.612,      0.38863
 408.384,      0.34934
 409.157,      0.30735
 409.929,      0.26381
 410.702,      0.21723
 411.474,      0.17166
 412.246,      0.12556
 413.019, 5.219642e-02
 413.791,-1.809341e-02
 414.563,-6.557404e-02
 415.336,     -0.10246
 416.108,     -0.13816
 416.881,     -0.16488
 417.653,     -0.19032
 418.425,     -0.21326
 419.198,     -0.23856
 419.97,     -0.26108
 420.742,     -0.28099
 421.515,     -0.30202
 422.287,     -0.32098
 423.06,     -0.33826
 423.832,     -0.35158
 424.604,     -0.36131
 425.377,     -0.36835
 426.149,     -0.37524
 426.921,     -0.38151
 427.694,     -0.38657
 428.466,     -0.39042
 429.238,     -0.39139
 430.011,     -0.39434
 430.783,     -0.39515
 431.556,     -0.39723
 432.328,     -0.40098
 433.1,     -0.40422
 433.873,     -0.40865
 434.645,     -0.41330
 435.417,     -0.42013
 436.19,     -0.42797
 436.962,     -0.43670
 437.735,     -0.44655
 438.507,     -0.45968
 439.279,     -0.47166
 440.052,     -0.48315
 440.824,     -0.49694
 441.596,     -0.50942
 442.369,     -0.52252
 443.141,     -0.53330
 443.914,     -0.54367
 444.686,     -0.55156
 445.458,     -0.56051
 446.231,     -0.56964
 447.003,     -0.57863
 447.775,     -0.58564
 448.548,     -0.59441
 449.32,     -0.60472
 450.093,     -0.61433
 450.865,     -0.61986
 451.637,     -0.62661
 452.41,     -0.63283
 453.182,     -0.63784
 453.954,     -0.64072
 454.727,     -0.64253
 455.499,     -0.64519
 456.271,     -0.64611
 457.044,     -0.64723
 457.816,     -0.64780
 458.589,     -0.64760
 459.361,     -0.64598
 460.133,     -0.64384
 460.906,     -0.64183
 461.678,     -0.63745
 462.45,     -0.63490
 463.223,     -0.62751
 463.995,     -0.61529
 464.768,     -0.57704
 465.54,     -0.53265
 466.312,     -0.49023
 467.085,     -0.45368
 467.857,     -0.41854
 468.629,     -0.36964
 469.402,     -0.32903
 470.174,     -0.29839
 470.947,     -0.27830
 471.719,     -0.26355
 472.491,     -0.25833
 473.264,     -0.25676
 474.036,     -0.25538
 474.808,     -0.25675
 475.581,     -0.26043
 476.353,     -0.26351
 477.126,     -0.26677
 477.898,     -0.26915
 478.67,     -0.27476
 479.443,     -0.28023
 480.215,     -0.28442
 480.987,     -0.28879
 481.76,     -0.29243
 482.532,     -0.29689
 483.305,     -0.30116
 484.077,     -0.30291
 484.849,     -0.30435
 485.622,     -0.30696
 486.394,     -0.30838
 487.166,     -0.30881
 487.939,     -0.31031
 488.711,     -0.30996
 489.483,     -0.31045
 490.256,     -0.30867
 491.028,     -0.30843
 491.801,     -0.30865
 492.573,     -0.30675
 493.345,     -0.30669
 494.118,     -0.30540
 494.89,     -0.30402
 495.662,     -0.30119
 496.435,     -0.30074
 497.207,     -0.29958
 497.98,     -0.29744
 498.752,     -0.29598
 499.524,     -0.29451
 500.297,     -0.29151
 501.069,     -0.28985
 501.841,     -0.28805
 502.614,     -0.28480
 503.386,     -0.28337
 504.159,     -0.27989
 504.931,     -0.27792
 505.703,     -0.27672
 506.476,     -0.27297
 507.248,     -0.27147
 508.02,     -0.27015
 508.793,     -0.26922
 509.565,     -0.26748
 510.338,     -0.26668
 511.11,     -0.26793
 511.882,     -0.26990
 512.655,     -0.27115
 513.427,     -0.27217
 514.199,     -0.27645
 514.972,     -0.27811
 515.744,     -0.28215
 516.516,     -0.28729
 517.289,     -0.29307
 518.061,     -0.29753
 518.834,     -0.30270
 519.606,     -0.30918
 520.378,     -0.31564
 521.151,     -0.32318
 521.923,     -0.33107
 522.695,     -0.34011
 523.468,     -0.34738
 524.24,     -0.35709
 525.013,     -0.36475
 525.785,     -0.37418
 526.557,     -0.38473
 527.33,     -0.39437
 528.102,     -0.40402
 528.874,     -0.41392
 529.647,     -0.42549
 530.419,     -0.43728
 531.192,     -0.44772
 531.964,     -0.45972
 532.736,     -0.46894
 533.509,     -0.47464
 534.281,     -0.48176
 535.053,     -0.48558
 535.826,     -0.49088
 536.598,     -0.49640
 537.371,     -0.50143
 538.143,     -0.50838
 538.915,     -0.51287
 539.688,     -0.52287
 540.46,     -0.53067
 541.232,     -0.53917
 542.005,     -0.54853
 542.777,     -0.55809
 543.549,     -0.56825
 544.322,     -0.58103
 545.094,     -0.59748
 545.867,     -0.61833
 546.639,     -0.67264
 547.411,     -0.73887
 548.184,     -0.78933
 548.956,     -0.83326
 549.728,     -0.86308
 550.501,     -0.89064
 551.273,     -0.91149
 552.046,     -0.93112
 552.818,     -0.94855
 553.59,     -0.96710
 554.363,     -0.98264
 555.135,     -0.99888
 555.907,     -1.01352
 556.68,     -1.02357
 557.452,     -1.03058
 558.225,     -1.03633
 558.997,     -1.04227
 559.769,     -1.04991
 560.542,     -1.05800
 561.314,     -1.06588
 562.086,     -1.07899
 562.859,     -1.09044
 563.631,     -1.10464
 564.404,     -1.12016
 565.176,     -1.13423
 565.948,     -1.14684
 566.721,     -1.15967
 567.493,     -1.17050
 568.265,     -1.18079
 569.038,     -1.19708
 569.81,     -1.22611
 570.582,     -1.26040
 571.355,     -1.29838
 572.127,     -1.33167
 572.9,     -1.36472
 573.672,     -1.39701
 574.444,     -1.42256
 575.217,     -1.44896
 575.989,     -1.47443
 576.761,     -1.49715
 577.534,     -1.51878
 578.306,     -1.53824
 579.079,     -1.55218
 579.851,     -1.56607
 580.623,     -1.57626
 581.396,     -1.58700
 582.168,     -1.59467
 582.94,     -1.60257
 583.713,     -1.61154
 584.485,     -1.61529
 585.258,     -1.62236
 586.03,     -1.62865
 586.802,     -1.63445
 587.575,     -1.64291
 588.347,     -1.65031
 589.119,     -1.65584
 589.892,     -1.66353
 590.664,     -1.66997
 591.437,     -1.67898
 592.209,     -1.68474
 592.981,     -1.69095
 593.754,     -1.69842
 594.526,     -1.70720
 595.298,     -1.71449
 596.071,     -1.72333
 596.843,     -1.73022
 597.615,     -1.73571
 598.388,     -1.74718
 599.16,     -1.78346
 599.933,     -1.84009
 600.705,     -1.87170
 601.477,     -1.89063
 602.25,     -1.91185
 603.022,     -1.93845
 603.794,     -1.95778
 604.567,     -1.97299
 605.339,     -1.98047
 606.112,     -1.98517
 606.884,     -1.98859
 607.656,     -1.99041
 608.429,     -1.99123
 609.201,     -1.99056
 609.973,     -1.99216
 610.746,     -1.99412
 611.518,     -1.99571
 612.291,     -1.99960
 613.063,     -2.00321
 613.835,     -2.00657
 614.608,     -2.01360
 615.38,     -2.01689
 616.152,     -2.01715
 616.925,     -2.02171
 617.697,     -2.02127
 618.47,     -2.02183
 619.242,     -2.02435
 620.014,     -2.02725
 620.787,     -2.02936
 621.559,     -2.02807
 622.331,     -2.03032
 623.104,     -2.03105
 623.876,     -2.03127
 624.649,     -2.03156
 625.421,     -2.03323
 626.193,     -2.03472
 626.966,     -2.03583
 627.738,     -2.03885
 628.51,     -2.03769
 629.283,     -2.03777
 630.055,     -2.04015
 630.827,     -2.03956
 631.6,     -2.03792
 632.372,     -2.04231
 633.145,     -2.04163
 633.917,     -2.04372
 634.689,     -2.04434
 635.462,     -2.04329
 636.234,     -2.04485
 637.006,     -2.04328
 637.779,     -2.04359
 638.551,     -2.04031
 639.324,     -2.04049
 640.096,     -2.04034
 640.868,     -2.03818
 641.641,     -2.03418
 642.413,     -2.03486
 643.185,     -2.03393
 643.958,     -2.02992
 644.73,     -2.02804
 645.503,     -2.02745
 646.275,     -2.02990
 647.047,     -2.02625
 647.82,     -2.02655
 648.592,     -2.02362
 649.364,     -2.02360
 650.137,     -2.02011
 650.909,     -2.01995
 651.682,     -2.01699
 652.454,     -2.01256
 653.226,     -2.00907
 653.999,     -2.00919
 654.771,     -2.00303
 655.543,     -2.00501
 656.316,     -2.00179
 657.088,     -1.99887
 657.86,     -1.99755
 658.633,     -1.99439
 659.405,     -1.99244
 660.178,     -1.99446
 660.95,     -1.98887
 661.722,     -1.99032
 662.495,     -1.98970
 663.267,     -1.98742
 664.039,     -1.98612
 664.812,     -1.98504
 665.584,     -1.98197
 666.357,     -1.98161
 667.129,     -1.98243
 667.901,     -1.98172
 668.674,     -1.98250
 669.446,     -1.98388
 670.218,     -1.98425
 670.991,     -1.98403
 671.763,     -1.98382
 672.536,     -1.98624
 673.308,     -1.98874
 674.08,     -1.98893
 674.853,     -1.98732
 675.625,     -1.98912
 676.397,     -1.98988
 677.17,     -1.99473
 677.942,     -1.99506
 678.715,     -1.99555
 679.487,     -2.00058
 680.259,     -2.00513
 681.032,     -2.00775
 681.804,     -2.01467
 682.576,     -2.01626
 683.349,     -2.01792
 684.121,     -2.02283
 684.893,     -2.02503
 685.666,     -2.02533
 686.438,     -2.02920
 687.211,     -2.03181
 687.983,     -2.03383
 688.755,     -2.03637
 689.528,     -2.04191
 690.3,     -2.04544
 691.072,     -2.04939
 691.845,     -2.05183
 692.617,     -2.05887
 693.39,     -2.06380
 694.162,     -2.06937
 694.934,     -2.07406
 695.707,     -2.07395
 696.479,     -2.08005
 697.251,     -2.08400
 698.024,     -2.08931
 698.796,     -2.09377
 699.569,     -2.09982
 700.341,     -2.10607
 701.113,     -2.11290
 701.886,     -2.11764
 702.658,     -2.12424
 703.43,     -2.12876
 704.203,     -2.13416
 704.975,     -2.13789
 705.748,     -2.14222
 706.52,     -2.14494
 707.292,     -2.15054
 708.065,     -2.15408
 708.837,     -2.15927
 709.609,     -2.16886
 710.382,     -2.17513
 711.154,     -2.18359
 711.926,     -2.19010
 712.699,     -2.19331
 713.471,     -2.20005
 714.244,     -2.20546
 715.016,     -2.21170
 715.788,     -2.21647
 716.561,     -2.22505
 717.333,     -2.23692
 718.105,     -2.24393
 718.878,     -2.25077
 719.65,     -2.25769
 720.423,     -2.26870
 721.195,     -2.27891
 721.967,     -2.28426
 722.74,     -2.29088
 723.512,     -2.29993
 724.284,     -2.30513
 725.057,     -2.31261
 725.829,     -2.31419
 726.602,     -2.31816
 727.374,     -2.32378
 728.146,     -2.32745
 728.919,     -2.32905
 729.691,     -2.33481
 730.463,     -2.33880
 731.236,     -2.34462
 732.008,     -2.34862
 732.781,     -2.35626
 733.553,     -2.36441
 734.325,     -2.37379
 735.098,     -2.37828
 735.87,     -2.38213
 736.642,     -2.38545
 737.415,     -2.39142
 738.187,     -2.39708
 738.96,     -2.40602
 739.732,     -2.40806
 740.504,     -2.41618
 741.277,     -2.42289
 742.049,     -2.42496
 742.821,     -2.42633
 743.594,     -2.43328
 744.366,     -2.44175
 745.138,     -2.44830
 745.911,     -2.45586
 746.683,     -2.46119
 747.456,     -2.46587
 748.228,     -2.47141
 749,     -2.47780
 749.773,     -2.48528
 750.545,     -2.49019
 751.317,     -2.49751
 752.09,     -2.50161
 752.862,     -2.50991
 753.635,     -2.51476
 754.407,     -2.51899
 755.179,     -2.51945
 755.952,     -2.52765
 756.724,     -2.52707
 757.496,     -2.53175
 758.269,     -2.53318
 759.041,     -2.53780
 759.814,     -2.54102
 760.586,     -2.54559
 761.358,     -2.55188
 762.131,     -2.55228
 762.903,     -2.55742
 763.675,     -2.55454
 764.448,     -2.56032
 765.22,     -2.56477
 765.993,     -2.56886
 766.765,     -2.57098
 767.537,     -2.57165
 768.31,     -2.57736
 769.082,     -2.57913
 769.854,     -2.58408
 770.627,     -2.58496
 771.399,     -2.58926
 772.171,     -2.59535
 772.944,     -2.59676
 773.716,     -2.60334
 774.489,     -2.60510
 775.261,     -2.60966
 776.033,     -2.61663
 776.806,     -2.62606
 777.578,     -2.63079
 778.35,     -2.63474
 779.123,     -2.63288
 779.895,     -2.63953
 780.668,     -2.63970
 781.44,     -2.63915
 782.212,     -2.64267
 782.985,     -2.64887
 783.757,     -2.65636
 784.529,     -2.65432
 785.302,     -2.65961
 786.074,     -2.66262
 786.847,     -2.66431
 787.619,     -2.66630
 788.391,     -2.67009
 789.164,     -2.67228
 789.936,     -2.67533
 790.708,     -2.67890
 791.481,     -2.67776
 792.253,     -2.68109
 793.026,     -2.67925
 793.798,     -2.68165
 794.57,     -2.68375
 795.343,     -2.68462
 796.115,     -2.68482
 796.887,     -2.69030
 797.66,     -2.69407
 798.432,     -2.69550
 799.204,     -2.69852
 799.977,     -2.69933
 800.749,     -2.69945
 801.522,     -2.70461
 802.294,     -2.70217
 803.066,     -2.70541
 803.839,     -2.70528
 804.611,     -2.70838
 805.383,     -2.70931
 806.156,     -2.71293
 806.928,     -2.71784
 807.701,     -2.71830
 808.473,     -2.72285
 809.245,     -2.72920
 810.018,     -2.73167
 810.79,     -2.73578
 811.562,     -2.73787
 812.335,     -2.73622
 813.107,     -2.73950
 813.88,     -2.73832
 814.652,     -2.73998
 815.424,     -2.74005
 816.197,     -2.73893
 816.969,     -2.73793
 817.741,     -2.73802
 818.514,     -2.74391
 819.286,     -2.74738
 820.059,     -2.75299
 820.831,     -2.75748
 821.603,     -2.76059
 822.376,     -2.76272
 823.148,     -2.76534
 823.92,     -2.76312
 824.693,     -2.76113
 825.465,     -2.76722
 826.237,     -2.76557
 827.01,     -2.76854
 827.782,     -2.76634
 828.555,     -2.76486
 829.327,     -2.76667
 830.099,     -2.76731
 830.872,     -2.77374
 831.644,     -2.77491
 832.416,     -2.78007
 833.189,     -2.78329
 833.961,     -2.78983
 834.734,     -2.79793
 835.506,     -2.79981
 836.278,     -2.80025
 837.051,     -2.80334
 837.823,     -2.80373
 838.595,     -2.80549
 839.368,     -2.80374
 840.14,     -2.80391
 840.913,     -2.81029
 841.685,     -2.81108
 842.457,     -2.81311
 843.23,     -2.81285
 844.002,     -2.81351
 844.774,     -2.81907
 845.547,     -2.82505
 846.319,     -2.82800
 847.092,     -2.82949
 847.864,     -2.83402
 848.636,     -2.84054
 849.409,     -2.84847
 850.181,     -2.84901
 850.953,     -2.85263
 851.726,     -2.85586
 852.498,     -2.85752
 853.27,     -2.86276
 854.043,     -2.86572
 854.815,     -2.86405
 855.588,     -2.86533
 856.36,     -2.86727
 857.132,     -2.87013
 857.905,     -2.86548
 858.677,     -2.86416
 859.449,     -2.87051
 860.222,     -2.87117
 860.994,     -2.87591
 861.767,     -2.87550
 862.539,     -2.87892
 863.311,     -2.87996
 864.084,     -2.88250
 864.856,     -2.88367
 865.628,     -2.88720
 866.401,     -2.88906
 867.173,     -2.89472
 867.946,     -2.89409
 868.718,     -2.89774
 869.49,     -2.90136
 870.263,     -2.90785
 871.035,     -2.90883
 871.807,     -2.91199
 872.58,     -2.91388
 873.352,     -2.91629
 874.125,     -2.91604
 874.897,     -2.92235
 875.669,     -2.92807
 876.442,     -2.92668
 877.214,     -2.92484
 877.986,     -2.92641
 878.759,     -2.92048
 879.531,     -2.91998
 880.303,     -2.92026
 881.076,     -2.91670
 881.848,     -2.91857
 882.621,     -2.92208
 883.393,     -2.92507
 884.165,     -2.92764
 884.938,     -2.93482
 885.71,     -2.94521
 886.482,     -2.95594
 887.255,     -2.96099
 888.027,     -2.96748
 888.8,     -2.96722
 889.572,     -2.96884
 890.344,     -2.97325
 891.117,     -2.97399
 891.889,     -2.97782
 892.661,     -2.97816
 893.434,     -2.97904
 894.206,     -2.98236
 894.979,     -2.98570
 895.751,     -2.98989
 896.523,     -2.99020
 897.296,     -2.99449
 898.068,     -2.99805
 898.84,     -2.99724
 899.613,     -2.99589
 900.385,     -3.00136
 901.158,     -3.00037
 901.93,     -3.00265
 902.702,     -2.99998
 903.475,     -3.00161
 904.247,     -3.00679
 905.019,     -3.00619
 905.792,     -3.00890
 906.564,     -3.01082
 907.337,     -3.01341
 908.109,     -3.01532
 908.881,     -3.02020
 909.654,     -3.02057
 910.426,     -3.02617
 911.198,     -3.03119
 911.971,     -3.04111
 912.743,     -3.05015
 913.515,     -3.04745
 914.288,     -3.05677
 915.06,     -3.06050
 915.833,     -3.06077
 916.605,     -3.06216
 917.377,     -3.06791
 918.15,     -3.07320
 918.922,     -3.08021
 919.694,     -3.08621
 920.467,     -3.08944
 921.239,     -3.08914
 922.012,     -3.09991
 922.784,     -3.10369
 923.556,     -3.11256
 924.329,     -3.12281
 925.101,     -3.13553
 925.873,     -3.14474
 926.646,     -3.16362
 927.418,     -3.17110
 928.191,     -3.18973
 928.963,     -3.20671
 929.735,     -3.22604
 930.508,     -3.24620
 931.28,     -3.26869
 932.052,     -3.28713
 932.825,     -3.30424
 933.597,     -3.32171
 934.37,     -3.33643
 935.142,     -3.35581
 935.914,     -3.36688
 936.687,     -3.37669
 937.459,     -3.39774
 938.231,     -3.40810
 939.004,     -3.41915
 939.776,     -3.41981
 940.548,     -3.43660
 941.321,     -3.44632
 942.093,     -3.45441
 942.866,     -3.46122
 943.638,     -3.46256
 944.41,     -3.46972
 945.183,     -3.47876
 945.955,     -3.48288
 946.727,     -3.48668
 947.5,     -3.48557
 948.272,     -3.48780
 949.045,     -3.48940
 949.817,     -3.49503
 950.589,     -3.48546
 951.362,     -3.48442
 952.134,     -3.48485
 952.906,     -3.49588
 953.679,     -3.49292
 954.451,     -3.49563
 955.224,     -3.49982
 955.996,     -3.50106
 956.768,     -3.50082
 957.541,     -3.50032
 958.313,     -3.49973
 959.085,     -3.49872
 959.858,     -3.49890
 960.63,     -3.49750
 961.403,     -3.49701
 962.175,     -3.49081
 962.947,     -3.48791
 963.72,     -3.48508
 964.492,     -3.48668
 965.264,     -3.47657
 966.037,     -3.47807
 966.809,     -3.47914
 967.581,     -3.47407
 968.354,     -3.47780
 969.126,     -3.47573
 969.899,     -3.47868
 970.671,     -3.47775
 971.443,     -3.46856
 972.216,     -3.47516
 972.988,     -3.46935
 973.76,     -3.46768
 974.533,     -3.46937
 975.305,     -3.47352
 976.078,     -3.47169
 976.85,     -3.46900
 977.622,     -3.46752
 978.395,     -3.47303
 979.167,     -3.47041
 979.939,     -3.46653
 980.712,     -3.47484
 981.484,     -3.46936
 982.257,     -3.47163
 983.029,     -3.47452
 983.801,     -3.47467
 984.574,     -3.47960
 985.346,     -3.47964
 986.118,     -3.47652
 986.891,     -3.48483
 987.663,     -3.48314
 988.436,     -3.48339
 989.208,     -3.49100
 989.98,     -3.49966
 990.753,     -3.49872
 991.525,     -3.50666
 992.297,     -3.50795
 993.07,     -3.51219
 993.842,     -3.51937
 994.615,     -3.52395
 995.387,     -3.52487
 996.159,     -3.52906
 996.932,     -3.53023
 997.704,     -3.52931
 998.476,     -3.53441
 999.249,     -3.53759
1000.02,     -3.54181
1000.79,     -3.54888
1001.57,     -3.55254
1002.34,     -3.55155
1003.11,     -3.55999
1003.88,     -3.55785
1004.66,     -3.56810
1005.43,     -3.57159
1006.2,     -3.57386
1006.97,     -3.57840
1007.74,     -3.58504
1008.52,     -3.59371
1009.29,     -3.59841
1010.06,     -3.59918
1010.83,     -3.60824
1011.61,     -3.61921
1012.38,     -3.61998
1013.15,     -3.62339
1013.92,     -3.63099
1014.7,     -3.63973
1015.47,     -3.63962
1016.24,     -3.64647
1017.01,     -3.65247
1017.79,     -3.66015
1018.56,     -3.65863
1019.33,     -3.66494
1020.1,     -3.67720
1020.88,     -3.67923
1021.65,     -3.68609
1022.42,     -3.69346
1023.19,     -3.69806
1023.96,     -3.69872
1024.74,     -3.70655
1025.51,     -3.70736
1026.28,     -3.71433
1027.05,     -3.72054
1027.83,     -3.72639
1028.6,     -3.73759
1029.37,     -3.73946
1030.14,     -3.74735
1030.92,     -3.75660
1031.69,     -3.76164
1032.46,     -3.76844
1033.23,     -3.77239
1034.01,     -3.78416
1034.78,     -3.79385
1035.55,     -3.79873
1036.32,     -3.81180
1037.09,     -3.81311
1037.87,     -3.81612
1038.64,     -3.82049
1039.41,     -3.82874
1040.18,     -3.83709
1040.96,     -3.84049
1041.73,     -3.85323
1042.5,     -3.86075
1043.27,     -3.86615
1044.05,     -3.86708
1044.82,     -3.87764
1045.59,     -3.88366
1046.36,     -3.89329
1047.14,     -3.90789
1047.91,     -3.91573
1048.68,     -3.92589
1049.45,     -3.92921
1050.23,     -3.93803
1051,     -3.93965
1051.77,     -3.94757
1052.54,     -3.96103
1053.31,     -3.96670
1054.09,     -3.98267
1054.86,     -3.98256
1055.63,     -3.99287
1056.4,     -3.99294
1057.18,     -4.00314
1057.95,     -4.00655
1058.72,     -4.01628
1059.49,     -4.02789
1060.27,     -4.03212
1061.04,     -4.04510
1061.81,     -4.04855
1062.58,     -4.05329
1063.36,     -4.06286
1064.13,     -4.07005
1064.9,     -4.07439
1065.67,     -4.09511
1066.45,     -4.10077
1067.22,     -4.11167
1067.99,     -4.12460
1068.76,     -4.13275
1069.53,     -4.13847
1070.31,     -4.15062
1071.08,     -4.15558
1071.85,     -4.17081
1072.62,     -4.18122
1073.4,     -4.19018
1074.17,     -4.19622
1074.94,     -4.20480
1075.71,     -4.21090
1076.49,     -4.21872
1077.26,     -4.23394
1078.03,     -4.22832
1078.8,     -4.23712
1079.58,     -4.25403
1080.35,     -4.26413
1081.12,     -4.27472
1081.89,     -4.28707
1082.66,     -4.30507
1083.44,     -4.31890
1084.21,     -4.32872
1084.98,     -4.33571
1085.75,     -4.34729
1086.53,     -4.35581
1087.3,     -4.36939
1088.07,     -4.38234
1088.84,     -4.39961
1089.62,     -4.41117
1090.39,     -4.42278
1091.16,     -4.42910
1091.93,     -4.44458
1092.71,     -4.45388
1093.48,     -4.45384
1094.25,     -4.45952
1095.02,     -4.47830
1095.8,     -4.48356
1096.57,     -4.48590
1097.34,     -4.50115
1098.11,     -4.51420
1098.88,     -4.51716
1099.66,     -4.53199
1100.43,     -4.53447
1101.2,     -4.55242
1101.97,     -4.56655
1102.75,     -4.56274
1103.52,     -4.58731
1104.29,     -4.60937
1105.06,     -4.63016
1105.84,     -4.64311
1106.61,     -4.65048
1107.38,     -4.66270
1108.15,     -4.67905
1108.93,     -4.69202
1109.7,     -4.70099
1110.47,     -4.71935
1111.24,     -4.71552
1112.01,     -4.72645
1112.79,     -4.73532
1113.56,     -4.73808
1114.33,     -4.74592
1115.1,     -4.76211
1115.88,     -4.77190
1116.65,     -4.78402
1117.42,     -4.79389
1118.19,     -4.79644
1118.97,     -4.80357
1119.74,     -4.82483
1120.51,     -4.83081
1121.28,     -4.85256
1122.06,     -4.86075
1122.83,     -4.87677
1123.6,     -4.88108
1124.37,     -4.88280
1125.15,     -4.89151
1125.92,     -4.90191
1126.69,     -4.90337
1127.46,     -4.89574
1128.23,     -4.90357
1129.01,     -4.90713
1129.78,     -4.93280
1130.55,     -4.96858
1131.32,     -5.00227
1132.1,     -5.03525
1132.87,     -5.07617
1133.64,     -5.12866
1134.41,     -5.17021
1135.19,     -5.23426
1135.96,     -5.28140
1136.73,     -5.32592
1137.5,     -5.37838
1138.28,     -5.44052
1139.05,     -5.46952
1139.82,     -5.49046
1140.59,     -5.53011
1141.37,     -5.58322
1142.14,     -5.63550
1142.91,     -5.69703
1143.68,     -5.71647
1144.45,     -5.74265
1145.23,     -5.80652
1146,     -5.83866
1146.77,     -5.88442
1147.54,     -5.93447
1148.32,     -5.96697
1149.09,     -6.02986
1149.86,     -6.07340
1150.63,     -6.11342
1151.41,     -6.15832
1152.18,     -6.19947
1152.95,     -6.23217
1153.72,     -6.26993
1154.5,     -6.30836
1155.27,     -6.35071
1156.04,     -6.38842
1156.81,     -6.44009
1157.58,     -6.44340
1158.36,     -6.46789
1159.13,     -6.50118
1159.9,     -6.53256
1160.67,     -6.55861
1161.45,     -6.59194
1162.22,     -6.60977
1162.99,     -6.63057
1163.76,     -6.65106
1164.54,     -6.67216
1165.31,     -6.68819
1166.08,     -6.71194
1166.85,     -6.74499
1167.63,     -6.77238
1168.4,     -6.75861
1169.17,     -6.77595
1169.94,     -6.79522
1170.72,     -6.82725
1171.49,     -6.82754
1172.26,     -6.83949
1173.03,     -6.83137
1173.8,     -6.85100
1174.18,     -6.87309